# %ECSV 0.9
# ---
# datatype:
# - {name: 'Wave[nm]', datatype: float64}
# - {name: 'Effic[%]', datatype: float64}
# delimiter: ','
# meta: !!omap
# - comments: [Dummy file]
# schema: astropy-2.0
Wave[nm],Effic[%]
870.0,0.85
870.142,0.85
870.284,0.85
870.426,0.85
870.568,0.85
870.71,0.85
870.852,0.85
870.994,0.85
871.136,0.85
871.278,0.85
871.42,0.85
871.562,0.85
871.704,0.85
871.846,0.85
871.988,0.85
872.13,0.85
872.272,0.85
872.414,0.85
872.556,0.85
872.698,0.85
872.84,0.85
872.982,0.85
873.124,0.85
873.266,0.85
873.408,0.85
873.55,0.85
873.692,0.85
873.834,0.85
873.976,0.85
874.118,0.85
874.26,0.85
874.402,0.85
874.544,0.85
874.686,0.85
874.828,0.85
874.97,0.85
875.112,0.85
875.254,0.85
875.396,0.85
875.538,0.85
875.68,0.85
875.822,0.85
875.964,0.85
876.106,0.85
876.248,0.85
876.39,0.85
876.532,0.85
876.674,0.85
876.816,0.85
876.958,0.85
877.1,0.85
877.242,0.85
877.384,0.85
877.526,0.85
877.668,0.85
877.81,0.85
877.952,0.85
878.094,0.85
878.236,0.85
878.378,0.85
878.52,0.85
878.662,0.85
878.804,0.85
878.946,0.85
879.088,0.85
879.23,0.85
879.372,0.85
879.514,0.85
879.656,0.85
879.798,0.85
879.94,0.85
880.082,0.85
880.224,0.85
880.366,0.85
880.508,0.85
880.65,0.85
880.792,0.85
880.934,0.85
881.076,0.85
881.218,0.85
881.36,0.85
881.502,0.85
881.644,0.85
881.786,0.85
881.928,0.85
882.07,0.85
882.212,0.85
882.354,0.85
882.496,0.85
882.638,0.85
882.78,0.85
882.922,0.85
883.064,0.85
883.206,0.85
883.348,0.85
883.49,0.85
883.632,0.85
883.774,0.85
883.916,0.85
884.058,0.85
884.2,0.85
884.342,0.85
884.484,0.85
884.626,0.85
884.768,0.85
884.91,0.85
885.052,0.85
885.194,0.85
885.336,0.85
885.478,0.85
885.62,0.85
885.762,0.85
885.904,0.85
886.046,0.85
886.188,0.85
886.33,0.85
886.472,0.85
886.614,0.85
886.756,0.85
886.898,0.85
887.04,0.85
887.182,0.85
887.324,0.85
887.466,0.85
887.608,0.85
887.75,0.85
887.892,0.85
888.034,0.85
888.176,0.85
888.318,0.85
888.46,0.85
888.602,0.85
888.744,0.85
888.886,0.85
889.028,0.85
889.17,0.85
889.312,0.85
889.454,0.85
889.596,0.85
889.738,0.85
889.88,0.85
890.022,0.85
890.164,0.85
890.306,0.85
890.448,0.85
890.59,0.85
890.732,0.85
890.874,0.85
891.016,0.85
891.158,0.85
891.3,0.85
891.442,0.85
891.584,0.85
891.726,0.85
891.868,0.85
892.01,0.85
892.152,0.85
892.294,0.85
892.436,0.85
892.578,0.85
892.72,0.85
892.862,0.85
893.004,0.85
893.146,0.85
893.288,0.85
893.43,0.85
893.572,0.85
893.714,0.85
893.856,0.85
893.998,0.85
894.14,0.85
894.282,0.85
894.424,0.85
894.566,0.85
894.708,0.85
894.85,0.85
894.992,0.85
895.134,0.85
895.276,0.85
895.418,0.85
895.56,0.85
895.702,0.85
895.844,0.85
895.986,0.85
896.128,0.85
896.27,0.85
896.412,0.85
896.554,0.85
896.696,0.85
896.838,0.85
896.98,0.85
897.122,0.85
897.264,0.85
897.406,0.85
897.548,0.85
897.69,0.85
897.832,0.85
897.974,0.85
898.116,0.85
898.258,0.85
898.4,0.85
898.542,0.85
898.684,0.85
898.826,0.85
898.968,0.85
899.11,0.85
899.252,0.85
899.394,0.85
899.536,0.85
899.678,0.85
899.82,0.85
899.962,0.85
900.104,0.85
900.246,0.85
900.388,0.85
900.53,0.85
900.672,0.85
900.814,0.85
900.956,0.85
901.098,0.85
901.24,0.85
901.382,0.85
901.524,0.85
901.666,0.85
901.808,0.85
901.95,0.85
902.092,0.85
902.234,0.85
902.376,0.85
902.518,0.85
902.66,0.85
902.802,0.85
902.944,0.85
903.086,0.85
903.228,0.85
903.37,0.85
903.512,0.85
903.654,0.85
903.796,0.85
903.938,0.85
904.08,0.85
904.222,0.85
904.364,0.85
904.506,0.85
904.648,0.85
904.79,0.85
904.932,0.85
905.074,0.85
905.216,0.85
905.358,0.85
905.5,0.85
905.642,0.85
905.784,0.85
905.926,0.85
906.068,0.85
906.21,0.85
906.352,0.85
906.494,0.85
906.636,0.85
906.778,0.85
906.92,0.85
907.062,0.85
907.204,0.85
907.346,0.85
907.488,0.85
907.63,0.85
907.772,0.85
907.914,0.85
908.056,0.85
908.198,0.85
908.34,0.85
908.482,0.85
908.624,0.85
908.766,0.85
908.908,0.85
909.05,0.85
909.192,0.85
909.334,0.85
909.476,0.85
909.618,0.85
909.76,0.85
909.902,0.85
910.044,0.85
910.186,0.85
910.328,0.85
910.47,0.85
910.612,0.85
910.754,0.85
910.896,0.85
911.038,0.85
911.18,0.85
911.322,0.85
911.464,0.85
911.606,0.85
911.748,0.85
911.89,0.85
912.032,0.85
912.174,0.85
912.316,0.85
912.458,0.85
912.6,0.85
912.742,0.85
912.884,0.85
913.026,0.85
913.168,0.85
913.31,0.85
913.452,0.85
913.594,0.85
913.736,0.85
913.878,0.85
914.02,0.85
914.162,0.85
914.304,0.85
914.446,0.85
914.588,0.85
914.73,0.85
914.872,0.85
915.014,0.85
915.156,0.85
915.298,0.85
915.44,0.85
915.582,0.85
915.724,0.85
915.866,0.85
916.008,0.85
916.15,0.85
916.292,0.85
916.434,0.85
916.576,0.85
916.718,0.85
916.86,0.85
917.002,0.85
917.144,0.85
917.286,0.85
917.428,0.85
917.57,0.85
917.712,0.85
917.854,0.85
917.996,0.85
918.138,0.85
918.28,0.85
918.422,0.85
918.564,0.85
918.706,0.85
918.848,0.85
918.99,0.85
919.132,0.85
919.274,0.85
919.416,0.85
919.558,0.85
919.7,0.85
919.842,0.85
919.984,0.85
920.126,0.85
920.268,0.85
920.41,0.85
920.552,0.85
920.694,0.85
920.836,0.85
920.978,0.85
921.12,0.85
921.262,0.85
921.404,0.85
921.546,0.85
921.688,0.85
921.83,0.85
921.972,0.85
922.114,0.85
922.256,0.85
922.398,0.85
922.54,0.85
922.682,0.85
922.824,0.85
922.966,0.85
923.108,0.85
923.25,0.85
923.392,0.85
923.534,0.85
923.676,0.85
923.818,0.85
923.96,0.85
924.102,0.85
924.244,0.85
924.386,0.85
924.528,0.85
924.67,0.85
924.812,0.85
924.954,0.85
925.096,0.85
925.238,0.85
925.38,0.85
925.522,0.85
925.664,0.85
925.806,0.85
925.948,0.85
926.09,0.85
926.232,0.85
926.374,0.85
926.516,0.85
926.658,0.85
926.8,0.85
926.942,0.85
927.084,0.85
927.226,0.85
927.368,0.85
927.51,0.85
927.652,0.85
927.794,0.85
927.936,0.85
928.078,0.85
928.22,0.85
928.362,0.85
928.504,0.85
928.646,0.85
928.788,0.85
928.93,0.85
929.072,0.85
929.214,0.85
929.356,0.85
929.498,0.85
929.64,0.85
929.782,0.85
929.924,0.85
930.066,0.85
930.208,0.85
930.35,0.85
930.492,0.85
930.634,0.85
930.776,0.85
930.918,0.85
931.06,0.85
931.202,0.85
931.344,0.85
931.486,0.85
931.628,0.85
931.77,0.85
931.912,0.85
932.054,0.85
932.196,0.85
932.338,0.85
932.48,0.85
932.622,0.85
932.764,0.85
932.906,0.85
933.048,0.85
933.19,0.85
933.332,0.85
933.474,0.85
933.616,0.85
933.758,0.85
933.9,0.85
934.042,0.85
934.184,0.85
934.326,0.85
934.468,0.85
934.61,0.85
934.752,0.85
934.894,0.85
935.036,0.85
935.178,0.85
935.32,0.85
935.462,0.85
935.604,0.85
935.746,0.85
935.888,0.85
936.03,0.85
936.172,0.85
936.314,0.85
936.456,0.85
936.598,0.85
936.74,0.85
936.882,0.85
937.024,0.85
937.166,0.85
937.308,0.85
937.45,0.85
937.592,0.85
937.734,0.85
937.876,0.85
938.018,0.85
938.16,0.85
938.302,0.85
938.444,0.85
938.586,0.85
938.728,0.85
938.87,0.85
939.012,0.85
939.154,0.85
939.296,0.85
939.438,0.85
939.58,0.85
939.722,0.85
939.864,0.85
940.006,0.85
940.148,0.85
940.29,0.85
940.432,0.85
940.574,0.85
940.716,0.85
940.858,0.85
941.0,0.85
941.142,0.85
941.284,0.85
941.426,0.85
941.568,0.85
941.71,0.85
941.852,0.85
941.994,0.85
942.136,0.85
942.278,0.85
942.42,0.85
942.562,0.85
942.704,0.85
942.846,0.85
942.988,0.85
943.13,0.85
943.272,0.85
943.414,0.85
943.556,0.85
943.698,0.85
943.84,0.85
943.982,0.85
944.124,0.85
944.266,0.85
944.408,0.85
944.55,0.85
944.692,0.85
944.834,0.85
944.976,0.85
945.118,0.85
945.26,0.85
945.402,0.85
945.544,0.85
945.686,0.85
945.828,0.85
945.97,0.85
946.112,0.85
946.254,0.85
946.396,0.85
946.538,0.85
946.68,0.85
946.822,0.85
946.964,0.85
947.106,0.85
947.248,0.85
947.39,0.85
947.532,0.85
947.674,0.85
947.816,0.85
947.958,0.85
948.1,0.85
948.242,0.85
948.384,0.85
948.526,0.85
948.668,0.85
948.81,0.85
948.952,0.85
949.094,0.85
949.236,0.85
949.378,0.85
949.52,0.85
949.662,0.85
949.804,0.85
949.946,0.85
950.088,0.85
950.23,0.85
950.372,0.85
950.514,0.85
950.656,0.85
950.798,0.85
950.94,0.85
951.082,0.85
951.224,0.85
951.366,0.85
951.508,0.85
951.65,0.85
951.792,0.85
951.934,0.85
952.076,0.85
952.218,0.85
952.36,0.85
952.502,0.85
952.644,0.85
952.786,0.85
952.928,0.85
953.07,0.85
953.212,0.85
953.354,0.85
953.496,0.85
953.638,0.85
953.78,0.85
953.922,0.85
954.064,0.85
954.206,0.85
954.348,0.85
954.49,0.85
954.632,0.85
954.774,0.85
954.916,0.85
955.058,0.85
955.2,0.85
955.342,0.85
955.484,0.85
955.626,0.85
955.768,0.85
955.91,0.85
956.052,0.85
956.194,0.85
956.336,0.85
956.478,0.85
956.62,0.85
956.762,0.85
956.904,0.85
957.046,0.85
957.188,0.85
957.33,0.85
957.472,0.85
957.614,0.85
957.756,0.85
957.898,0.85
958.04,0.85
958.182,0.85
958.324,0.85
958.466,0.85
958.608,0.85
958.75,0.85
958.892,0.85
959.034,0.85
959.176,0.85
959.318,0.85
959.46,0.85
959.602,0.85
959.744,0.85
959.886,0.85
960.028,0.85
960.17,0.85
960.312,0.85
960.454,0.85
960.596,0.85
960.738,0.85
960.88,0.85
961.022,0.85
961.164,0.85
961.306,0.85
961.448,0.85
961.59,0.85
961.732,0.85
961.874,0.85
962.016,0.85
962.158,0.85
962.3,0.85
962.442,0.85
962.584,0.85
962.726,0.85
962.868,0.85
963.01,0.85
963.152,0.85
963.294,0.85
963.436,0.85
963.578,0.85
963.72,0.85
963.862,0.85
964.004,0.85
964.146,0.85
964.288,0.85
964.43,0.85
964.572,0.85
964.714,0.85
964.856,0.85
964.998,0.85
965.14,0.85
965.282,0.85
965.424,0.85
965.566,0.85
965.708,0.85
965.85,0.85
965.992,0.85
966.134,0.85
966.276,0.85
966.418,0.85
966.56,0.85
966.702,0.85
966.844,0.85
966.986,0.85
967.128,0.85
967.27,0.85
967.412,0.85
967.554,0.85
967.696,0.85
967.838,0.85
967.98,0.85
968.122,0.85
968.264,0.85
968.406,0.85
968.548,0.85
968.69,0.85
968.832,0.85
968.974,0.85
969.116,0.85
969.258,0.85
969.4,0.85
969.542,0.85
969.684,0.85
969.826,0.85
969.968,0.85
970.11,0.85
970.252,0.85
970.394,0.85
970.536,0.85
970.678,0.85
970.82,0.85
970.962,0.85
971.104,0.85
971.246,0.85
971.388,0.85
971.53,0.85
971.672,0.85
971.814,0.85
971.956,0.85
972.098,0.85
972.24,0.85
972.382,0.85
972.524,0.85
972.666,0.85
972.808,0.85
972.95,0.85
973.092,0.85
973.234,0.85
973.376,0.85
973.518,0.85
973.66,0.85
973.802,0.85
973.944,0.85
974.086,0.85
974.228,0.85
974.37,0.85
974.512,0.85
974.654,0.85
974.796,0.85
974.938,0.85
975.08,0.85
975.222,0.85
975.364,0.85
975.506,0.85
975.648,0.85
975.79,0.85
975.932,0.85
976.074,0.85
976.216,0.85
976.358,0.85
976.5,0.85
976.642,0.85
976.784,0.85
976.926,0.85
977.068,0.85
977.21,0.85
977.352,0.85
977.494,0.85
977.636,0.85
977.778,0.85
977.92,0.85
978.062,0.85
978.204,0.85
978.346,0.85
978.488,0.85
978.63,0.85
978.772,0.85
978.914,0.85
979.056,0.85
979.198,0.85
979.34,0.85
979.482,0.85
979.624,0.85
979.766,0.85
979.908,0.85
980.05,0.85
980.192,0.85
980.334,0.85
980.476,0.85
980.618,0.85
980.76,0.85
980.902,0.85
981.044,0.85
981.186,0.85
981.328,0.85
981.47,0.85
981.612,0.85
981.754,0.85
981.896,0.85
982.038,0.85
982.18,0.85
982.322,0.85
982.464,0.85
982.606,0.85
982.748,0.85
982.89,0.85
983.032,0.85
983.174,0.85
983.316,0.85
983.458,0.85
983.6,0.85
983.742,0.85
983.884,0.85
984.026,0.85
984.168,0.85
984.31,0.85
984.452,0.85
984.594,0.85
984.736,0.85
984.878,0.85
985.02,0.85
985.162,0.85
985.304,0.85
985.446,0.85
985.588,0.85
985.73,0.85
985.872,0.85
986.014,0.85
986.156,0.85
986.298,0.85
986.44,0.85
986.582,0.85
986.724,0.85
986.866,0.85
987.008,0.85
987.15,0.85
987.292,0.85
987.434,0.85
987.576,0.85
987.718,0.85
987.86,0.85
988.002,0.85
988.144,0.85
988.286,0.85
988.428,0.85
988.57,0.85
988.712,0.85
988.854,0.85
988.996,0.85
989.138,0.85
989.28,0.85
989.422,0.85
989.564,0.85
989.706,0.85
989.848,0.85
989.99,0.85
990.132,0.85
990.274,0.85
990.416,0.85
990.558,0.85
990.7,0.85
990.842,0.85
990.984,0.85
991.126,0.85
991.268,0.85
991.41,0.85
991.552,0.85
991.694,0.85
991.836,0.85
991.978,0.85
992.12,0.85
992.262,0.85
992.404,0.85
992.546,0.85
992.688,0.85
992.83,0.85
992.972,0.85
993.114,0.85
993.256,0.85
993.398,0.85
993.54,0.85
993.682,0.85
993.824,0.85
993.966,0.85
994.108,0.85
994.25,0.85
994.392,0.85
994.534,0.85
994.676,0.85
994.818,0.85
994.96,0.85
995.102,0.85
995.244,0.85
995.386,0.85
995.528,0.85
995.67,0.85
995.812,0.85
995.954,0.85
996.096,0.85
996.238,0.85
996.38,0.85
996.522,0.85
996.664,0.85
996.806,0.85
996.948,0.85
997.09,0.85
997.232,0.85
997.374,0.85
997.516,0.85
997.658,0.85
997.8,0.85
997.942,0.85
998.084,0.85
998.226,0.85
998.368,0.85
998.51,0.85
998.652,0.85
998.794,0.85
998.936,0.85
999.078,0.85
999.22,0.85
999.362,0.85
999.504,0.85
999.646,0.85
999.788,0.85
999.93,0.85
1000.072,0.85
1000.214,0.85
1000.356,0.85
1000.498,0.85
1000.64,0.85
1000.782,0.85
1000.924,0.85
1001.066,0.85
1001.208,0.85
1001.35,0.85
1001.492,0.85
1001.634,0.85
1001.776,0.85
1001.918,0.85
1002.06,0.85
1002.202,0.85
1002.344,0.85
1002.486,0.85
1002.628,0.85
1002.77,0.85
1002.912,0.85
1003.054,0.85
1003.196,0.85
1003.338,0.85
1003.48,0.85
1003.622,0.85
1003.764,0.85
1003.906,0.85
1004.048,0.85
1004.19,0.85
1004.332,0.85
1004.474,0.85
1004.616,0.85
1004.758,0.85
1004.9,0.85
1005.042,0.85
1005.184,0.85
1005.326,0.85
1005.468,0.85
1005.61,0.85
1005.752,0.85
1005.894,0.85
1006.036,0.85
1006.178,0.85
1006.32,0.85
1006.462,0.85
1006.604,0.85
1006.746,0.85
1006.888,0.85
1007.03,0.85
1007.172,0.85
1007.314,0.85
1007.456,0.85
1007.598,0.85
1007.74,0.85
1007.882,0.85
1008.024,0.85
1008.166,0.85
1008.308,0.85
1008.45,0.85
1008.592,0.85
1008.734,0.85
1008.876,0.85
1009.018,0.85
1009.16,0.85
1009.302,0.85
1009.444,0.85
1009.586,0.85
1009.728,0.85
1009.87,0.85
1010.012,0.85
1010.154,0.85
1010.296,0.85
1010.438,0.85
1010.58,0.85
1010.722,0.85
1010.864,0.85
1011.006,0.85
1011.148,0.85
1011.29,0.85
1011.432,0.85
1011.574,0.85
1011.716,0.85
1011.858,0.85
1012.0,0.85
1012.142,0.85
1012.284,0.85
1012.426,0.85
1012.568,0.85
1012.71,0.85
1012.852,0.85
1012.994,0.85
1013.136,0.85
1013.278,0.85
1013.42,0.85
1013.562,0.85
1013.704,0.85
1013.846,0.85
1013.988,0.85
1014.13,0.85
1014.272,0.85
1014.414,0.85
1014.556,0.85
1014.698,0.85
1014.84,0.85
1014.982,0.85
1015.124,0.85
1015.266,0.85
1015.408,0.85
1015.55,0.85
1015.692,0.85
1015.834,0.85
1015.976,0.85
1016.118,0.85
1016.26,0.85
1016.402,0.85
1016.544,0.85
1016.686,0.85
1016.828,0.85
1016.97,0.85
1017.112,0.85
1017.254,0.85
1017.396,0.85
1017.538,0.85
1017.68,0.85
1017.822,0.85
1017.964,0.85
1018.106,0.85
1018.248,0.85
1018.39,0.85
1018.532,0.85
1018.674,0.85
1018.816,0.85
1018.958,0.85
1019.1,0.85
1019.242,0.85
1019.384,0.85
1019.526,0.85
1019.668,0.85
1019.81,0.85
1019.952,0.85
1020.094,0.85
1020.236,0.85
1020.378,0.85
1020.52,0.85
1020.662,0.85
1020.804,0.85
1020.946,0.85
1021.088,0.85
1021.23,0.85
1021.372,0.85
1021.514,0.85
1021.656,0.85
1021.798,0.85
1021.94,0.85
1022.082,0.85
1022.224,0.85
1022.366,0.85
1022.508,0.85
1022.65,0.85
1022.792,0.85
1022.934,0.85
1023.076,0.85
1023.218,0.85
1023.36,0.85
1023.502,0.85
1023.644,0.85
1023.786,0.85
1023.928,0.85
1024.07,0.85
1024.212,0.85
1024.354,0.85
1024.496,0.85
1024.638,0.85
1024.78,0.85
1024.922,0.85
1025.064,0.85
1025.206,0.85
1025.348,0.85
1025.49,0.85
1025.632,0.85
1025.774,0.85
1025.916,0.85
1026.058,0.85
1026.2,0.85
1026.342,0.85
1026.484,0.85
1026.626,0.85
1026.768,0.85
1026.91,0.85
1027.052,0.85
1027.194,0.85
1027.336,0.85
1027.478,0.85
1027.62,0.85
1027.762,0.85
1027.904,0.85
1028.046,0.85
1028.188,0.85
1028.33,0.85
1028.472,0.85
1028.614,0.85
1028.756,0.85
1028.898,0.85
1029.04,0.85
1029.182,0.85
1029.324,0.85
1029.466,0.85
1029.608,0.85
1029.75,0.85
1029.892,0.85
1030.034,0.85
1030.176,0.85
1030.318,0.85
1030.46,0.85
1030.602,0.85
1030.744,0.85
1030.886,0.85
1031.028,0.85
1031.17,0.85
1031.312,0.85
1031.454,0.85
1031.596,0.85
1031.738,0.85
1031.88,0.85
1032.022,0.85
1032.164,0.85
1032.306,0.85
1032.448,0.85
1032.59,0.85
1032.732,0.85
1032.874,0.85
1033.016,0.85
1033.158,0.85
1033.3,0.85
1033.442,0.85
1033.584,0.85
1033.726,0.85
1033.868,0.85
1034.01,0.85
1034.152,0.85
1034.294,0.85
1034.436,0.85
1034.578,0.85
1034.72,0.85
1034.862,0.85
1035.004,0.85
1035.146,0.85
1035.288,0.85
1035.43,0.85
1035.572,0.85
1035.714,0.85
1035.856,0.85
1035.998,0.85
1036.14,0.85
1036.282,0.85
1036.424,0.85
1036.566,0.85
1036.708,0.85
1036.85,0.85
1036.992,0.85
1037.134,0.85
1037.276,0.85
1037.418,0.85
1037.56,0.85
1037.702,0.85
1037.844,0.85
1037.986,0.85
1038.128,0.85
1038.27,0.85
1038.412,0.85
1038.554,0.85
1038.696,0.85
1038.838,0.85
1038.98,0.85
1039.122,0.85
1039.264,0.85
1039.406,0.85
1039.548,0.85
1039.69,0.85
1039.832,0.85
1039.974,0.85
1040.116,0.85
1040.258,0.85
1040.4,0.85
1040.542,0.85
1040.684,0.85
1040.826,0.85
1040.968,0.85
1041.11,0.85
1041.252,0.85
1041.394,0.85
1041.536,0.85
1041.678,0.85
1041.82,0.85
1041.962,0.85
1042.104,0.85
1042.246,0.85
1042.388,0.85
1042.53,0.85
1042.672,0.85
1042.814,0.85
1042.956,0.85
1043.098,0.85
1043.24,0.85
1043.382,0.85
1043.524,0.85
1043.666,0.85
1043.808,0.85
1043.95,0.85
1044.092,0.85
1044.234,0.85
1044.376,0.85
1044.518,0.85
1044.66,0.85
1044.802,0.85
1044.944,0.85
1045.086,0.85
1045.228,0.85
1045.37,0.85
1045.512,0.85
1045.654,0.85
1045.796,0.85
1045.938,0.85
1046.08,0.85
1046.222,0.85
1046.364,0.85
1046.506,0.85
1046.648,0.85
1046.79,0.85
1046.932,0.85
1047.074,0.85
1047.216,0.85
1047.358,0.85
1047.5,0.85
1047.642,0.85
1047.784,0.85
1047.926,0.85
1048.068,0.85
1048.21,0.85
1048.352,0.85
1048.494,0.85
1048.636,0.85
1048.778,0.85
1048.92,0.85
1049.062,0.85
1049.204,0.85
1049.346,0.85
1049.488,0.85
1049.63,0.85
1049.772,0.85
1049.914,0.85
1050.056,0.85
1050.198,0.85
1050.34,0.85
1050.482,0.85
1050.624,0.85
1050.766,0.85
1050.908,0.85
1051.05,0.85
1051.192,0.85
1051.334,0.85
1051.476,0.85
1051.618,0.85
1051.76,0.85
1051.902,0.85
1052.044,0.85
1052.186,0.85
1052.328,0.85
1052.47,0.85
1052.612,0.85
1052.754,0.85
1052.896,0.85
1053.038,0.85
1053.18,0.85
1053.322,0.85
1053.464,0.85
1053.606,0.85
1053.748,0.85
1053.89,0.85
1054.032,0.85
1054.174,0.85
1054.316,0.85
1054.458,0.85
1054.6,0.85
1054.742,0.85
1054.884,0.85
1055.026,0.85
1055.168,0.85
1055.31,0.85
1055.452,0.85
1055.594,0.85
1055.736,0.85
1055.878,0.85
1056.02,0.85
1056.162,0.85
1056.304,0.85
1056.446,0.85
1056.588,0.85
1056.73,0.85
1056.872,0.85
1057.014,0.85
1057.156,0.85
1057.298,0.85
1057.44,0.85
1057.582,0.85
1057.724,0.85
1057.866,0.85
1058.008,0.85
1058.15,0.85
1058.292,0.85
1058.434,0.85
1058.576,0.85
1058.718,0.85
1058.86,0.85
1059.002,0.85
1059.144,0.85
1059.286,0.85
1059.428,0.85
1059.57,0.85
1059.712,0.85
1059.854,0.85
1059.996,0.85
1060.138,0.85
1060.28,0.85
1060.422,0.85
1060.564,0.85
1060.706,0.85
1060.848,0.85
1060.99,0.85
1061.132,0.85
1061.274,0.85
1061.416,0.85
1061.558,0.85
1061.7,0.85
1061.842,0.85
1061.984,0.85
1062.126,0.85
1062.268,0.85
1062.41,0.85
1062.552,0.85
1062.694,0.85
1062.836,0.85
1062.978,0.85
1063.12,0.85
1063.262,0.85
1063.404,0.85
1063.546,0.85
1063.688,0.85
1063.83,0.85
1063.972,0.85
1064.114,0.85
1064.256,0.85
1064.398,0.85
1064.54,0.85
1064.682,0.85
1064.824,0.85
1064.966,0.85
1065.108,0.85
1065.25,0.85
1065.392,0.85
1065.534,0.85
1065.676,0.85
1065.818,0.85
1065.96,0.85
1066.102,0.85
1066.244,0.85
1066.386,0.85
1066.528,0.85
1066.67,0.85
1066.812,0.85
1066.954,0.85
1067.096,0.85
1067.238,0.85
1067.38,0.85
1067.522,0.85
1067.664,0.85
1067.806,0.85
1067.948,0.85
1068.09,0.85
1068.232,0.85
1068.374,0.85
1068.516,0.85
1068.658,0.85
1068.8,0.85
1068.942,0.85
1069.084,0.85
1069.226,0.85
1069.368,0.85
1069.51,0.85
1069.652,0.85
1069.794,0.85
1069.936,0.85
1070.078,0.85
1070.22,0.85
1070.362,0.85
1070.504,0.85
1070.646,0.85
1070.788,0.85
1070.93,0.85
1071.072,0.85
1071.214,0.85
1071.356,0.85
1071.498,0.85
1071.64,0.85
1071.782,0.85
1071.924,0.85
1072.066,0.85
1072.208,0.85
1072.35,0.85
1072.492,0.85
1072.634,0.85
1072.776,0.85
1072.918,0.85
1073.06,0.85
1073.202,0.85
1073.344,0.85
1073.486,0.85
1073.628,0.85
1073.77,0.85
1073.912,0.85
1074.054,0.85
1074.196,0.85
1074.338,0.85
1074.48,0.85
1074.622,0.85
1074.764,0.85
1074.906,0.85
1075.048,0.85
1075.19,0.85
1075.332,0.85
1075.474,0.85
1075.616,0.85
1075.758,0.85
1075.9,0.85
1076.042,0.85
1076.184,0.85
1076.326,0.85
1076.468,0.85
1076.61,0.85
1076.752,0.85
1076.894,0.85
1077.036,0.85
1077.178,0.85
1077.32,0.85
1077.462,0.85
1077.604,0.85
1077.746,0.85
1077.888,0.85
1078.03,0.85
1078.172,0.85
1078.314,0.85
1078.456,0.85
1078.598,0.85
1078.74,0.85
1078.882,0.85
1079.024,0.85
1079.166,0.85
1079.308,0.85
1079.45,0.85
1079.592,0.85
1079.734,0.85
1079.876,0.85
1080.018,0.85
1080.16,0.85
1080.302,0.85
1080.444,0.85
1080.586,0.85
1080.728,0.85
1080.87,0.85
1081.012,0.85
1081.154,0.85
1081.296,0.85
1081.438,0.85
1081.58,0.85
1081.722,0.85
1081.864,0.85
1082.006,0.85
1082.148,0.85
1082.29,0.85
1082.432,0.85
1082.574,0.85
1082.716,0.85
1082.858,0.85
1083.0,0.85
1083.142,0.85
1083.284,0.85
1083.426,0.85
1083.568,0.85
1083.71,0.85
1083.852,0.85
1083.994,0.85
1084.136,0.85
1084.278,0.85
1084.42,0.85
1084.562,0.85
1084.704,0.85
1084.846,0.85
1084.988,0.85
1085.13,0.85
1085.272,0.85
1085.414,0.85
1085.556,0.85
1085.698,0.85
1085.84,0.85
1085.982,0.85
1086.124,0.85
1086.266,0.85
1086.408,0.85
1086.55,0.85
1086.692,0.85
1086.834,0.85
1086.976,0.85
1087.118,0.85
1087.26,0.85
1087.402,0.85
1087.544,0.85
1087.686,0.85
1087.828,0.85
1087.97,0.85
1088.112,0.85
1088.254,0.85
1088.396,0.85
1088.538,0.85
1088.68,0.85
1088.822,0.85
1088.964,0.85
1089.106,0.85
1089.248,0.85
1089.39,0.85
1089.532,0.85
1089.674,0.85
1089.816,0.85
1089.958,0.85
1090.1,0.85
1090.242,0.85
1090.384,0.85
1090.526,0.85
1090.668,0.85
1090.81,0.85
1090.952,0.85
1091.094,0.85
1091.236,0.85
1091.378,0.85
1091.52,0.85
1091.662,0.85
1091.804,0.85
1091.946,0.85
1092.088,0.85
1092.23,0.85
1092.372,0.85
1092.514,0.85
1092.656,0.85
1092.798,0.85
1092.94,0.85
1093.082,0.85
1093.224,0.85
1093.366,0.85
1093.508,0.85
1093.65,0.85
1093.792,0.85
1093.934,0.85
1094.076,0.85
1094.218,0.85
1094.36,0.85
1094.502,0.85
1094.644,0.85
1094.786,0.85
1094.928,0.85
1095.07,0.85
1095.212,0.85
1095.354,0.85
1095.496,0.85
1095.638,0.85
1095.78,0.85
1095.922,0.85
1096.064,0.85
1096.206,0.85
1096.348,0.85
1096.49,0.85
1096.632,0.85
1096.774,0.85
1096.916,0.85
1097.058,0.85
1097.2,0.85
1097.342,0.85
1097.484,0.85
1097.626,0.85
1097.768,0.85
1097.91,0.85
1098.052,0.85
1098.194,0.85
1098.336,0.85
1098.478,0.85
1098.62,0.85
1098.762,0.85
1098.904,0.85
1099.046,0.85
1099.188,0.85
1099.33,0.85
1099.472,0.85
1099.614,0.85
1099.756,0.85
1099.898,0.85
1100.04,0.85
1100.182,0.85
1100.324,0.85
1100.466,0.85
1100.608,0.85
1100.75,0.85
1100.892,0.85
1101.034,0.85
1101.176,0.85
1101.318,0.85
1101.46,0.85
1101.602,0.85
1101.744,0.85
1101.886,0.85
1102.028,0.85
1102.17,0.85
1102.312,0.85
1102.454,0.85
1102.596,0.85
1102.738,0.85
1102.88,0.85
1103.022,0.85
1103.164,0.85
1103.306,0.85
1103.448,0.85
1103.59,0.85
1103.732,0.85
1103.874,0.85
1104.016,0.85
1104.158,0.85
1104.3,0.85
1104.442,0.85
1104.584,0.85
1104.726,0.85
1104.868,0.85
1105.01,0.85
1105.152,0.85
1105.294,0.85
1105.436,0.85
1105.578,0.85
1105.72,0.85
1105.862,0.85
1106.004,0.85
1106.146,0.85
1106.288,0.85
1106.43,0.85
1106.572,0.85
1106.714,0.85
1106.856,0.85
1106.998,0.85
1107.14,0.85
1107.282,0.85
1107.424,0.85
1107.566,0.85
1107.708,0.85
1107.85,0.85
1107.992,0.85
1108.134,0.85
1108.276,0.85
1108.418,0.85
1108.56,0.85
1108.702,0.85
1108.844,0.85
1108.986,0.85
1109.128,0.85
1109.27,0.85
1109.412,0.85
1109.554,0.85
1109.696,0.85
1109.838,0.85
1109.98,0.85
1110.122,0.85
1110.264,0.85
1110.406,0.85
1110.548,0.85
1110.69,0.85
1110.832,0.85
1110.974,0.85
1111.116,0.85
1111.258,0.85
1111.4,0.85
1111.542,0.85
1111.684,0.85
1111.826,0.85
1111.968,0.85
1112.11,0.85
1112.252,0.85
1112.394,0.85
1112.536,0.85
1112.678,0.85
1112.82,0.85
1112.962,0.85
1113.104,0.85
1113.246,0.85
1113.388,0.85
1113.53,0.85
1113.672,0.85
1113.814,0.85
1113.956,0.85
1114.098,0.85
1114.24,0.85
1114.382,0.85
1114.524,0.85
1114.666,0.85
1114.808,0.85
1114.95,0.85
1115.092,0.85
1115.234,0.85
1115.376,0.85
1115.518,0.85
1115.66,0.85
1115.802,0.85
1115.944,0.85
1116.086,0.85
1116.228,0.85
1116.37,0.85
1116.512,0.85
1116.654,0.85
1116.796,0.85
1116.938,0.85
1117.08,0.85
1117.222,0.85
1117.364,0.85
1117.506,0.85
1117.648,0.85
1117.79,0.85
1117.932,0.85
1118.074,0.85
1118.216,0.85
1118.358,0.85
1118.5,0.85
1118.642,0.85
1118.784,0.85
1118.926,0.85
1119.068,0.85
1119.21,0.85
1119.352,0.85
1119.494,0.85
1119.636,0.85
1119.778,0.85
1119.92,0.85
1120.062,0.85
1120.204,0.85
1120.346,0.85
1120.488,0.85
1120.63,0.85
1120.772,0.85
1120.914,0.85
1121.056,0.85
1121.198,0.85
1121.34,0.85
1121.482,0.85
1121.624,0.85
1121.766,0.85
1121.908,0.85
1122.05,0.85
1122.192,0.85
1122.334,0.85
1122.476,0.85
1122.618,0.85
1122.76,0.85
1122.902,0.85
1123.044,0.85
1123.186,0.85
1123.328,0.85
1123.47,0.85
1123.612,0.85
1123.754,0.85
1123.896,0.85
1124.038,0.85
1124.18,0.85
1124.322,0.85
1124.464,0.85
1124.606,0.85
1124.748,0.85
1124.89,0.85
1125.032,0.85
1125.174,0.85
1125.316,0.85
1125.458,0.85
1125.6,0.85
1125.742,0.85
1125.884,0.85
1126.026,0.85
1126.168,0.85
1126.31,0.85
1126.452,0.85
1126.594,0.85
1126.736,0.85
1126.878,0.85
1127.02,0.85
1127.162,0.85
1127.304,0.85
1127.446,0.85
1127.588,0.85
1127.73,0.85
1127.872,0.85
1128.014,0.85
1128.156,0.85
1128.298,0.85
1128.44,0.85
1128.582,0.85
1128.724,0.85
1128.866,0.85
1129.008,0.85
1129.15,0.85
1129.292,0.85
1129.434,0.85
1129.576,0.85
1129.718,0.85
1129.86,0.85
1130.002,0.85
1130.144,0.85
1130.286,0.85
1130.428,0.85
1130.57,0.85
1130.712,0.85
1130.854,0.85
1130.996,0.85
1131.138,0.85
1131.28,0.85
1131.422,0.85
1131.564,0.85
1131.706,0.85
1131.848,0.85
1131.99,0.85
1132.132,0.85
1132.274,0.85
1132.416,0.85
1132.558,0.85
1132.7,0.85
1132.842,0.85
1132.984,0.85
1133.126,0.85
1133.268,0.85
1133.41,0.85
1133.552,0.85
1133.694,0.85
1133.836,0.85
1133.978,0.85
1134.12,0.85
1134.262,0.85
1134.404,0.85
1134.546,0.85
1134.688,0.85
1134.83,0.85
1134.972,0.85
1135.114,0.85
1135.256,0.85
1135.398,0.85
1135.54,0.85
1135.682,0.85
1135.824,0.85
1135.966,0.85
1136.108,0.85
1136.25,0.85
1136.392,0.85
1136.534,0.85
1136.676,0.85
1136.818,0.85
1136.96,0.85
1137.102,0.85
1137.244,0.85
1137.386,0.85
1137.528,0.85
1137.67,0.85
1137.812,0.85
1137.954,0.85
1138.096,0.85
1138.238,0.85
1138.38,0.85
1138.522,0.85
1138.664,0.85
1138.806,0.85
1138.948,0.85
1139.09,0.85
1139.232,0.85
1139.374,0.85
1139.516,0.85
1139.658,0.85
1139.8,0.85
1139.942,0.85
1140.084,0.85
1140.226,0.85
1140.368,0.85
1140.51,0.85
1140.652,0.85
1140.794,0.85
1140.936,0.85
1141.078,0.85
1141.22,0.85
1141.362,0.85
1141.504,0.85
1141.646,0.85
1141.788,0.85
1141.93,0.85
1142.072,0.85
1142.214,0.85
1142.356,0.85
1142.498,0.85
1142.64,0.85
1142.782,0.85
1142.924,0.85
1143.066,0.85
1143.208,0.85
1143.35,0.85
1143.492,0.85
1143.634,0.85
1143.776,0.85
1143.918,0.85
1144.06,0.85
1144.202,0.85
1144.344,0.85
1144.486,0.85
1144.628,0.85
1144.77,0.85
1144.912,0.85
1145.054,0.85
1145.196,0.85
1145.338,0.85
1145.48,0.85
1145.622,0.85
1145.764,0.85
1145.906,0.85
1146.048,0.85
1146.19,0.85
1146.332,0.85
1146.474,0.85
1146.616,0.85
1146.758,0.85
1146.9,0.85
1147.042,0.85
1147.184,0.85
1147.326,0.85
1147.468,0.85
1147.61,0.85
1147.752,0.85
1147.894,0.85
1148.036,0.85
1148.178,0.85
1148.32,0.85
1148.462,0.85
1148.604,0.85
1148.746,0.85
1148.888,0.85
1149.03,0.85
1149.172,0.85
1149.314,0.85
1149.456,0.85
1149.598,0.85
1149.74,0.85
1149.882,0.85
1150.024,0.85
1150.166,0.85
1150.308,0.85
1150.45,0.85
1150.592,0.85
1150.734,0.85
1150.876,0.85
1151.018,0.85
1151.16,0.85
1151.302,0.85
1151.444,0.85
1151.586,0.85
1151.728,0.85
1151.87,0.85
1152.012,0.85
1152.154,0.85
1152.296,0.85
1152.438,0.85
1152.58,0.85
1152.722,0.85
1152.864,0.85
1153.006,0.85
1153.148,0.85
1153.29,0.85
1153.432,0.85
1153.574,0.85
1153.716,0.85
1153.858,0.85
1154.0,0.85
1154.142,0.85
1154.284,0.85
1154.426,0.85
1154.568,0.85
1154.71,0.85
1154.852,0.85
1154.994,0.85
1155.136,0.85
1155.278,0.85
1155.42,0.85
1155.562,0.85
1155.704,0.85
1155.846,0.85
1155.988,0.85
1156.13,0.85
1156.272,0.85
1156.414,0.85
1156.556,0.85
1156.698,0.85
1156.84,0.85
1156.982,0.85
1157.124,0.85
1157.266,0.85
1157.408,0.85
1157.55,0.85
1157.692,0.85
1157.834,0.85
1157.976,0.85
1158.118,0.85
1158.26,0.85
1158.402,0.85
1158.544,0.85
1158.686,0.85
1158.828,0.85
1158.97,0.85
1159.112,0.85
1159.254,0.85
1159.396,0.85
1159.538,0.85
1159.68,0.85
1159.822,0.85
1159.964,0.85
1160.106,0.85
1160.248,0.85
1160.39,0.85
1160.532,0.85
1160.674,0.85
1160.816,0.85
1160.958,0.85
1161.1,0.85
1161.242,0.85
1161.384,0.85
1161.526,0.85
1161.668,0.85
1161.81,0.85
1161.952,0.85
1162.094,0.85
1162.236,0.85
1162.378,0.85
1162.52,0.85
1162.662,0.85
1162.804,0.85
1162.946,0.85
1163.088,0.85
1163.23,0.85
1163.372,0.85
1163.514,0.85
1163.656,0.85
1163.798,0.85
1163.94,0.85
1164.082,0.85
1164.224,0.85
1164.366,0.85
1164.508,0.85
1164.65,0.85
1164.792,0.85
1164.934,0.85
1165.076,0.85
1165.218,0.85
1165.36,0.85
1165.502,0.85
1165.644,0.85
1165.786,0.85
1165.928,0.85
1166.07,0.85
1166.212,0.85
1166.354,0.85
1166.496,0.85
1166.638,0.85
1166.78,0.85
1166.922,0.85
1167.064,0.85
1167.206,0.85
1167.348,0.85
1167.49,0.85
1167.632,0.85
1167.774,0.85
1167.916,0.85
1168.058,0.85
1168.2,0.85
1168.342,0.85
1168.484,0.85
1168.626,0.85
1168.768,0.85
1168.91,0.85
1169.052,0.85
1169.194,0.85
1169.336,0.85
1169.478,0.85
1169.62,0.85
1169.762,0.85
1169.904,0.85
1170.046,0.85
1170.188,0.85
1170.33,0.85
1170.472,0.85
1170.614,0.85
1170.756,0.85
1170.898,0.85
