# %ECSV 0.9
# ---
# datatype:
# - {name: 'Wave[nm]', datatype: float64}
# - {name: 'Effic[%]', datatype: float64}
# delimiter: ','
# meta: !!omap
# - comments: [Dummy file]
# schema: astropy-2.0
Wave[nm],Effic[%]
870.0,80.0
870.142,80.0
870.284,80.0
870.426,80.0
870.568,80.0
870.71,80.0
870.852,80.0
870.994,80.0
871.136,80.0
871.278,80.0
871.42,80.0
871.562,80.0
871.704,80.0
871.846,80.0
871.988,80.0
872.13,80.0
872.272,80.0
872.414,80.0
872.556,80.0
872.698,80.0
872.84,80.0
872.982,80.0
873.124,80.0
873.266,80.0
873.408,80.0
873.55,80.0
873.692,80.0
873.834,80.0
873.976,80.0
874.118,80.0
874.26,80.0
874.402,80.0
874.544,80.0
874.686,80.0
874.828,80.0
874.97,80.0
875.112,80.0
875.254,80.0
875.396,80.0
875.538,80.0
875.68,80.0
875.822,80.0
875.964,80.0
876.106,80.0
876.248,80.0
876.39,80.0
876.532,80.0
876.674,80.0
876.816,80.0
876.958,80.0
877.1,80.0
877.242,80.0
877.384,80.0
877.526,80.0
877.668,80.0
877.81,80.0
877.952,80.0
878.094,80.0
878.236,80.0
878.378,80.0
878.52,80.0
878.662,80.0
878.804,80.0
878.946,80.0
879.088,80.0
879.23,80.0
879.372,80.0
879.514,80.0
879.656,80.0
879.798,80.0
879.94,80.0
880.082,80.0
880.224,80.0
880.366,80.0
880.508,80.0
880.65,80.0
880.792,80.0
880.934,80.0
881.076,80.0
881.218,80.0
881.36,80.0
881.502,80.0
881.644,80.0
881.786,80.0
881.928,80.0
882.07,80.0
882.212,80.0
882.354,80.0
882.496,80.0
882.638,80.0
882.78,80.0
882.922,80.0
883.064,80.0
883.206,80.0
883.348,80.0
883.49,80.0
883.632,80.0
883.774,80.0
883.916,80.0
884.058,80.0
884.2,80.0
884.342,80.0
884.484,80.0
884.626,80.0
884.768,80.0
884.91,80.0
885.052,80.0
885.194,80.0
885.336,80.0
885.478,80.0
885.62,80.0
885.762,80.0
885.904,80.0
886.046,80.0
886.188,80.0
886.33,80.0
886.472,80.0
886.614,80.0
886.756,80.0
886.898,80.0
887.04,80.0
887.182,80.0
887.324,80.0
887.466,80.0
887.608,80.0
887.75,80.0
887.892,80.0
888.034,80.0
888.176,80.0
888.318,80.0
888.46,80.0
888.602,80.0
888.744,80.0
888.886,80.0
889.028,80.0
889.17,80.0
889.312,80.0
889.454,80.0
889.596,80.0
889.738,80.0
889.88,80.0
890.022,80.0
890.164,80.0
890.306,80.0
890.448,80.0
890.59,80.0
890.732,80.0
890.874,80.0
891.016,80.0
891.158,80.0
891.3,80.0
891.442,80.0
891.584,80.0
891.726,80.0
891.868,80.0
892.01,80.0
892.152,80.0
892.294,80.0
892.436,80.0
892.578,80.0
892.72,80.0
892.862,80.0
893.004,80.0
893.146,80.0
893.288,80.0
893.43,80.0
893.572,80.0
893.714,80.0
893.856,80.0
893.998,80.0
894.14,80.0
894.282,80.0
894.424,80.0
894.566,80.0
894.708,80.0
894.85,80.0
894.992,80.0
895.134,80.0
895.276,80.0
895.418,80.0
895.56,80.0
895.702,80.0
895.844,80.0
895.986,80.0
896.128,80.0
896.27,80.0
896.412,80.0
896.554,80.0
896.696,80.0
896.838,80.0
896.98,80.0
897.122,80.0
897.264,80.0
897.406,80.0
897.548,80.0
897.69,80.0
897.832,80.0
897.974,80.0
898.116,80.0
898.258,80.0
898.4,80.0
898.542,80.0
898.684,80.0
898.826,80.0
898.968,80.0
899.11,80.0
899.252,80.0
899.394,80.0
899.536,80.0
899.678,80.0
899.82,80.0
899.962,80.0
900.104,80.0
900.246,80.0
900.388,80.0
900.53,80.0
900.672,80.0
900.814,80.0
900.956,80.0
901.098,80.0
901.24,80.0
901.382,80.0
901.524,80.0
901.666,80.0
901.808,80.0
901.95,80.0
902.092,80.0
902.234,80.0
902.376,80.0
902.518,80.0
902.66,80.0
902.802,80.0
902.944,80.0
903.086,80.0
903.228,80.0
903.37,80.0
903.512,80.0
903.654,80.0
903.796,80.0
903.938,80.0
904.08,80.0
904.222,80.0
904.364,80.0
904.506,80.0
904.648,80.0
904.79,80.0
904.932,80.0
905.074,80.0
905.216,80.0
905.358,80.0
905.5,80.0
905.642,80.0
905.784,80.0
905.926,80.0
906.068,80.0
906.21,80.0
906.352,80.0
906.494,80.0
906.636,80.0
906.778,80.0
906.92,80.0
907.062,80.0
907.204,80.0
907.346,80.0
907.488,80.0
907.63,80.0
907.772,80.0
907.914,80.0
908.056,80.0
908.198,80.0
908.34,80.0
908.482,80.0
908.624,80.0
908.766,80.0
908.908,80.0
909.05,80.0
909.192,80.0
909.334,80.0
909.476,80.0
909.618,80.0
909.76,80.0
909.902,80.0
910.044,80.0
910.186,80.0
910.328,80.0
910.47,80.0
910.612,80.0
910.754,80.0
910.896,80.0
911.038,80.0
911.18,80.0
911.322,80.0
911.464,80.0
911.606,80.0
911.748,80.0
911.89,80.0
912.032,80.0
912.174,80.0
912.316,80.0
912.458,80.0
912.6,80.0
912.742,80.0
912.884,80.0
913.026,80.0
913.168,80.0
913.31,80.0
913.452,80.0
913.594,80.0
913.736,80.0
913.878,80.0
914.02,80.0
914.162,80.0
914.304,80.0
914.446,80.0
914.588,80.0
914.73,80.0
914.872,80.0
915.014,80.0
915.156,80.0
915.298,80.0
915.44,80.0
915.582,80.0
915.724,80.0
915.866,80.0
916.008,80.0
916.15,80.0
916.292,80.0
916.434,80.0
916.576,80.0
916.718,80.0
916.86,80.0
917.002,80.0
917.144,80.0
917.286,80.0
917.428,80.0
917.57,80.0
917.712,80.0
917.854,80.0
917.996,80.0
918.138,80.0
918.28,80.0
918.422,80.0
918.564,80.0
918.706,80.0
918.848,80.0
918.99,80.0
919.132,80.0
919.274,80.0
919.416,80.0
919.558,80.0
919.7,80.0
919.842,80.0
919.984,80.0
920.126,80.0
920.268,80.0
920.41,80.0
920.552,80.0
920.694,80.0
920.836,80.0
920.978,80.0
921.12,80.0
921.262,80.0
921.404,80.0
921.546,80.0
921.688,80.0
921.83,80.0
921.972,80.0
922.114,80.0
922.256,80.0
922.398,80.0
922.54,80.0
922.682,80.0
922.824,80.0
922.966,80.0
923.108,80.0
923.25,80.0
923.392,80.0
923.534,80.0
923.676,80.0
923.818,80.0
923.96,80.0
924.102,80.0
924.244,80.0
924.386,80.0
924.528,80.0
924.67,80.0
924.812,80.0
924.954,80.0
925.096,80.0
925.238,80.0
925.38,80.0
925.522,80.0
925.664,80.0
925.806,80.0
925.948,80.0
926.09,80.0
926.232,80.0
926.374,80.0
926.516,80.0
926.658,80.0
926.8,80.0
926.942,80.0
927.084,80.0
927.226,80.0
927.368,80.0
927.51,80.0
927.652,80.0
927.794,80.0
927.936,80.0
928.078,80.0
928.22,80.0
928.362,80.0
928.504,80.0
928.646,80.0
928.788,80.0
928.93,80.0
929.072,80.0
929.214,80.0
929.356,80.0
929.498,80.0
929.64,80.0
929.782,80.0
929.924,80.0
930.066,80.0
930.208,80.0
930.35,80.0
930.492,80.0
930.634,80.0
930.776,80.0
930.918,80.0
931.06,80.0
931.202,80.0
931.344,80.0
931.486,80.0
931.628,80.0
931.77,80.0
931.912,80.0
932.054,80.0
932.196,80.0
932.338,80.0
932.48,80.0
932.622,80.0
932.764,80.0
932.906,80.0
933.048,80.0
933.19,80.0
933.332,80.0
933.474,80.0
933.616,80.0
933.758,80.0
933.9,80.0
934.042,80.0
934.184,80.0
934.326,80.0
934.468,80.0
934.61,80.0
934.752,80.0
934.894,80.0
935.036,80.0
935.178,80.0
935.32,80.0
935.462,80.0
935.604,80.0
935.746,80.0
935.888,80.0
936.03,80.0
936.172,80.0
936.314,80.0
936.456,80.0
936.598,80.0
936.74,80.0
936.882,80.0
937.024,80.0
937.166,80.0
937.308,80.0
937.45,80.0
937.592,80.0
937.734,80.0
937.876,80.0
938.018,80.0
938.16,80.0
938.302,80.0
938.444,80.0
938.586,80.0
938.728,80.0
938.87,80.0
939.012,80.0
939.154,80.0
939.296,80.0
939.438,80.0
939.58,80.0
939.722,80.0
939.864,80.0
940.006,80.0
940.148,80.0
940.29,80.0
940.432,80.0
940.574,80.0
940.716,80.0
940.858,80.0
941.0,80.0
941.142,80.0
941.284,80.0
941.426,80.0
941.568,80.0
941.71,80.0
941.852,80.0
941.994,80.0
942.136,80.0
942.278,80.0
942.42,80.0
942.562,80.0
942.704,80.0
942.846,80.0
942.988,80.0
943.13,80.0
943.272,80.0
943.414,80.0
943.556,80.0
943.698,80.0
943.84,80.0
943.982,80.0
944.124,80.0
944.266,80.0
944.408,80.0
944.55,80.0
944.692,80.0
944.834,80.0
944.976,80.0
945.118,80.0
945.26,80.0
945.402,80.0
945.544,80.0
945.686,80.0
945.828,80.0
945.97,80.0
946.112,80.0
946.254,80.0
946.396,80.0
946.538,80.0
946.68,80.0
946.822,80.0
946.964,80.0
947.106,80.0
947.248,80.0
947.39,80.0
947.532,80.0
947.674,80.0
947.816,80.0
947.958,80.0
948.1,80.0
948.242,80.0
948.384,80.0
948.526,80.0
948.668,80.0
948.81,80.0
948.952,80.0
949.094,80.0
949.236,80.0
949.378,80.0
949.52,80.0
949.662,80.0
949.804,80.0
949.946,80.0
950.088,80.0
950.23,80.0
950.372,80.0
950.514,80.0
950.656,80.0
950.798,80.0
950.94,80.0
951.082,80.0
951.224,80.0
951.366,80.0
951.508,80.0
951.65,80.0
951.792,80.0
951.934,80.0
952.076,80.0
952.218,80.0
952.36,80.0
952.502,80.0
952.644,80.0
952.786,80.0
952.928,80.0
953.07,80.0
953.212,80.0
953.354,80.0
953.496,80.0
953.638,80.0
953.78,80.0
953.922,80.0
954.064,80.0
954.206,80.0
954.348,80.0
954.49,80.0
954.632,80.0
954.774,80.0
954.916,80.0
955.058,80.0
955.2,80.0
955.342,80.0
955.484,80.0
955.626,80.0
955.768,80.0
955.91,80.0
956.052,80.0
956.194,80.0
956.336,80.0
956.478,80.0
956.62,80.0
956.762,80.0
956.904,80.0
957.046,80.0
957.188,80.0
957.33,80.0
957.472,80.0
957.614,80.0
957.756,80.0
957.898,80.0
958.04,80.0
958.182,80.0
958.324,80.0
958.466,80.0
958.608,80.0
958.75,80.0
958.892,80.0
959.034,80.0
959.176,80.0
959.318,80.0
959.46,80.0
959.602,80.0
959.744,80.0
959.886,80.0
960.028,80.0
960.17,80.0
960.312,80.0
960.454,80.0
960.596,80.0
960.738,80.0
960.88,80.0
961.022,80.0
961.164,80.0
961.306,80.0
961.448,80.0
961.59,80.0
961.732,80.0
961.874,80.0
962.016,80.0
962.158,80.0
962.3,80.0
962.442,80.0
962.584,80.0
962.726,80.0
962.868,80.0
963.01,80.0
963.152,80.0
963.294,80.0
963.436,80.0
963.578,80.0
963.72,80.0
963.862,80.0
964.004,80.0
964.146,80.0
964.288,80.0
964.43,80.0
964.572,80.0
964.714,80.0
964.856,80.0
964.998,80.0
965.14,80.0
965.282,80.0
965.424,80.0
965.566,80.0
965.708,80.0
965.85,80.0
965.992,80.0
966.134,80.0
966.276,80.0
966.418,80.0
966.56,80.0
966.702,80.0
966.844,80.0
966.986,80.0
967.128,80.0
967.27,80.0
967.412,80.0
967.554,80.0
967.696,80.0
967.838,80.0
967.98,80.0
968.122,80.0
968.264,80.0
968.406,80.0
968.548,80.0
968.69,80.0
968.832,80.0
968.974,80.0
969.116,80.0
969.258,80.0
969.4,80.0
969.542,80.0
969.684,80.0
969.826,80.0
969.968,80.0
970.11,80.0
970.252,80.0
970.394,80.0
970.536,80.0
970.678,80.0
970.82,80.0
970.962,80.0
971.104,80.0
971.246,80.0
971.388,80.0
971.53,80.0
971.672,80.0
971.814,80.0
971.956,80.0
972.098,80.0
972.24,80.0
972.382,80.0
972.524,80.0
972.666,80.0
972.808,80.0
972.95,80.0
973.092,80.0
973.234,80.0
973.376,80.0
973.518,80.0
973.66,80.0
973.802,80.0
973.944,80.0
974.086,80.0
974.228,80.0
974.37,80.0
974.512,80.0
974.654,80.0
974.796,80.0
974.938,80.0
975.08,80.0
975.222,80.0
975.364,80.0
975.506,80.0
975.648,80.0
975.79,80.0
975.932,80.0
976.074,80.0
976.216,80.0
976.358,80.0
976.5,80.0
976.642,80.0
976.784,80.0
976.926,80.0
977.068,80.0
977.21,80.0
977.352,80.0
977.494,80.0
977.636,80.0
977.778,80.0
977.92,80.0
978.062,80.0
978.204,80.0
978.346,80.0
978.488,80.0
978.63,80.0
978.772,80.0
978.914,80.0
979.056,80.0
979.198,80.0
979.34,80.0
979.482,80.0
979.624,80.0
979.766,80.0
979.908,80.0
980.05,80.0
980.192,80.0
980.334,80.0
980.476,80.0
980.618,80.0
980.76,80.0
980.902,80.0
981.044,80.0
981.186,80.0
981.328,80.0
981.47,80.0
981.612,80.0
981.754,80.0
981.896,80.0
982.038,80.0
982.18,80.0
982.322,80.0
982.464,80.0
982.606,80.0
982.748,80.0
982.89,80.0
983.032,80.0
983.174,80.0
983.316,80.0
983.458,80.0
983.6,80.0
983.742,80.0
983.884,80.0
984.026,80.0
984.168,80.0
984.31,80.0
984.452,80.0
984.594,80.0
984.736,80.0
984.878,80.0
985.02,80.0
985.162,80.0
985.304,80.0
985.446,80.0
985.588,80.0
985.73,80.0
985.872,80.0
986.014,80.0
986.156,80.0
986.298,80.0
986.44,80.0
986.582,80.0
986.724,80.0
986.866,80.0
987.008,80.0
987.15,80.0
987.292,80.0
987.434,80.0
987.576,80.0
987.718,80.0
987.86,80.0
988.002,80.0
988.144,80.0
988.286,80.0
988.428,80.0
988.57,80.0
988.712,80.0
988.854,80.0
988.996,80.0
989.138,80.0
989.28,80.0
989.422,80.0
989.564,80.0
989.706,80.0
989.848,80.0
989.99,80.0
990.132,80.0
990.274,80.0
990.416,80.0
990.558,80.0
990.7,80.0
990.842,80.0
990.984,80.0
991.126,80.0
991.268,80.0
991.41,80.0
991.552,80.0
991.694,80.0
991.836,80.0
991.978,80.0
992.12,80.0
992.262,80.0
992.404,80.0
992.546,80.0
992.688,80.0
992.83,80.0
992.972,80.0
993.114,80.0
993.256,80.0
993.398,80.0
993.54,80.0
993.682,80.0
993.824,80.0
993.966,80.0
994.108,80.0
994.25,80.0
994.392,80.0
994.534,80.0
994.676,80.0
994.818,80.0
994.96,80.0
995.102,80.0
995.244,80.0
995.386,80.0
995.528,80.0
995.67,80.0
995.812,80.0
995.954,80.0
996.096,80.0
996.238,80.0
996.38,80.0
996.522,80.0
996.664,80.0
996.806,80.0
996.948,80.0
997.09,80.0
997.232,80.0
997.374,80.0
997.516,80.0
997.658,80.0
997.8,80.0
997.942,80.0
998.084,80.0
998.226,80.0
998.368,80.0
998.51,80.0
998.652,80.0
998.794,80.0
998.936,80.0
999.078,80.0
999.22,80.0
999.362,80.0
999.504,80.0
999.646,80.0
999.788,80.0
999.93,80.0
1000.072,80.0
1000.214,80.0
1000.356,80.0
1000.498,80.0
1000.64,80.0
1000.782,80.0
1000.924,80.0
1001.066,80.0
1001.208,80.0
1001.35,80.0
1001.492,80.0
1001.634,80.0
1001.776,80.0
1001.918,80.0
1002.06,80.0
1002.202,80.0
1002.344,80.0
1002.486,80.0
1002.628,80.0
1002.77,80.0
1002.912,80.0
1003.054,80.0
1003.196,80.0
1003.338,80.0
1003.48,80.0
1003.622,80.0
1003.764,80.0
1003.906,80.0
1004.048,80.0
1004.19,80.0
1004.332,80.0
1004.474,80.0
1004.616,80.0
1004.758,80.0
1004.9,80.0
1005.042,80.0
1005.184,80.0
1005.326,80.0
1005.468,80.0
1005.61,80.0
1005.752,80.0
1005.894,80.0
1006.036,80.0
1006.178,80.0
1006.32,80.0
1006.462,80.0
1006.604,80.0
1006.746,80.0
1006.888,80.0
1007.03,80.0
1007.172,80.0
1007.314,80.0
1007.456,80.0
1007.598,80.0
1007.74,80.0
1007.882,80.0
1008.024,80.0
1008.166,80.0
1008.308,80.0
1008.45,80.0
1008.592,80.0
1008.734,80.0
1008.876,80.0
1009.018,80.0
1009.16,80.0
1009.302,80.0
1009.444,80.0
1009.586,80.0
1009.728,80.0
1009.87,80.0
1010.012,80.0
1010.154,80.0
1010.296,80.0
1010.438,80.0
1010.58,80.0
1010.722,80.0
1010.864,80.0
1011.006,80.0
1011.148,80.0
1011.29,80.0
1011.432,80.0
1011.574,80.0
1011.716,80.0
1011.858,80.0
1012.0,80.0
1012.142,80.0
1012.284,80.0
1012.426,80.0
1012.568,80.0
1012.71,80.0
1012.852,80.0
1012.994,80.0
1013.136,80.0
1013.278,80.0
1013.42,80.0
1013.562,80.0
1013.704,80.0
1013.846,80.0
1013.988,80.0
1014.13,80.0
1014.272,80.0
1014.414,80.0
1014.556,80.0
1014.698,80.0
1014.84,80.0
1014.982,80.0
1015.124,80.0
1015.266,80.0
1015.408,80.0
1015.55,80.0
1015.692,80.0
1015.834,80.0
1015.976,80.0
1016.118,80.0
1016.26,80.0
1016.402,80.0
1016.544,80.0
1016.686,80.0
1016.828,80.0
1016.97,80.0
1017.112,80.0
1017.254,80.0
1017.396,80.0
1017.538,80.0
1017.68,80.0
1017.822,80.0
1017.964,80.0
1018.106,80.0
1018.248,80.0
1018.39,80.0
1018.532,80.0
1018.674,80.0
1018.816,80.0
1018.958,80.0
1019.1,80.0
1019.242,80.0
1019.384,80.0
1019.526,80.0
1019.668,80.0
1019.81,80.0
1019.952,80.0
1020.094,80.0
1020.236,80.0
1020.378,80.0
1020.52,80.0
1020.662,80.0
1020.804,80.0
1020.946,80.0
1021.088,80.0
1021.23,80.0
1021.372,80.0
1021.514,80.0
1021.656,80.0
1021.798,80.0
1021.94,80.0
1022.082,80.0
1022.224,80.0
1022.366,80.0
1022.508,80.0
1022.65,80.0
1022.792,80.0
1022.934,80.0
1023.076,80.0
1023.218,80.0
1023.36,80.0
1023.502,80.0
1023.644,80.0
1023.786,80.0
1023.928,80.0
1024.07,80.0
1024.212,80.0
1024.354,80.0
1024.496,80.0
1024.638,80.0
1024.78,80.0
1024.922,80.0
1025.064,80.0
1025.206,80.0
1025.348,80.0
1025.49,80.0
1025.632,80.0
1025.774,80.0
1025.916,80.0
1026.058,80.0
1026.2,80.0
1026.342,80.0
1026.484,80.0
1026.626,80.0
1026.768,80.0
1026.91,80.0
1027.052,80.0
1027.194,80.0
1027.336,80.0
1027.478,80.0
1027.62,80.0
1027.762,80.0
1027.904,80.0
1028.046,80.0
1028.188,80.0
1028.33,80.0
1028.472,80.0
1028.614,80.0
1028.756,80.0
1028.898,80.0
1029.04,80.0
1029.182,80.0
1029.324,80.0
1029.466,80.0
1029.608,80.0
1029.75,80.0
1029.892,80.0
1030.034,80.0
1030.176,80.0
1030.318,80.0
1030.46,80.0
1030.602,80.0
1030.744,80.0
1030.886,80.0
1031.028,80.0
1031.17,80.0
1031.312,80.0
1031.454,80.0
1031.596,80.0
1031.738,80.0
1031.88,80.0
1032.022,80.0
1032.164,80.0
1032.306,80.0
1032.448,80.0
1032.59,80.0
1032.732,80.0
1032.874,80.0
1033.016,80.0
1033.158,80.0
1033.3,80.0
1033.442,80.0
1033.584,80.0
1033.726,80.0
1033.868,80.0
1034.01,80.0
1034.152,80.0
1034.294,80.0
1034.436,80.0
1034.578,80.0
1034.72,80.0
1034.862,80.0
1035.004,80.0
1035.146,80.0
1035.288,80.0
1035.43,80.0
1035.572,80.0
1035.714,80.0
1035.856,80.0
1035.998,80.0
1036.14,80.0
1036.282,80.0
1036.424,80.0
1036.566,80.0
1036.708,80.0
1036.85,80.0
1036.992,80.0
1037.134,80.0
1037.276,80.0
1037.418,80.0
1037.56,80.0
1037.702,80.0
1037.844,80.0
1037.986,80.0
1038.128,80.0
1038.27,80.0
1038.412,80.0
1038.554,80.0
1038.696,80.0
1038.838,80.0
1038.98,80.0
1039.122,80.0
1039.264,80.0
1039.406,80.0
1039.548,80.0
1039.69,80.0
1039.832,80.0
1039.974,80.0
1040.116,80.0
1040.258,80.0
1040.4,80.0
1040.542,80.0
1040.684,80.0
1040.826,80.0
1040.968,80.0
1041.11,80.0
1041.252,80.0
1041.394,80.0
1041.536,80.0
1041.678,80.0
1041.82,80.0
1041.962,80.0
1042.104,80.0
1042.246,80.0
1042.388,80.0
1042.53,80.0
1042.672,80.0
1042.814,80.0
1042.956,80.0
1043.098,80.0
1043.24,80.0
1043.382,80.0
1043.524,80.0
1043.666,80.0
1043.808,80.0
1043.95,80.0
1044.092,80.0
1044.234,80.0
1044.376,80.0
1044.518,80.0
1044.66,80.0
1044.802,80.0
1044.944,80.0
1045.086,80.0
1045.228,80.0
1045.37,80.0
1045.512,80.0
1045.654,80.0
1045.796,80.0
1045.938,80.0
1046.08,80.0
1046.222,80.0
1046.364,80.0
1046.506,80.0
1046.648,80.0
1046.79,80.0
1046.932,80.0
1047.074,80.0
1047.216,80.0
1047.358,80.0
1047.5,80.0
1047.642,80.0
1047.784,80.0
1047.926,80.0
1048.068,80.0
1048.21,80.0
1048.352,80.0
1048.494,80.0
1048.636,80.0
1048.778,80.0
1048.92,80.0
1049.062,80.0
1049.204,80.0
1049.346,80.0
1049.488,80.0
1049.63,80.0
1049.772,80.0
1049.914,80.0
1050.056,80.0
1050.198,80.0
1050.34,80.0
1050.482,80.0
1050.624,80.0
1050.766,80.0
1050.908,80.0
1051.05,80.0
1051.192,80.0
1051.334,80.0
1051.476,80.0
1051.618,80.0
1051.76,80.0
1051.902,80.0
1052.044,80.0
1052.186,80.0
1052.328,80.0
1052.47,80.0
1052.612,80.0
1052.754,80.0
1052.896,80.0
1053.038,80.0
1053.18,80.0
1053.322,80.0
1053.464,80.0
1053.606,80.0
1053.748,80.0
1053.89,80.0
1054.032,80.0
1054.174,80.0
1054.316,80.0
1054.458,80.0
1054.6,80.0
1054.742,80.0
1054.884,80.0
1055.026,80.0
1055.168,80.0
1055.31,80.0
1055.452,80.0
1055.594,80.0
1055.736,80.0
1055.878,80.0
1056.02,80.0
1056.162,80.0
1056.304,80.0
1056.446,80.0
1056.588,80.0
1056.73,80.0
1056.872,80.0
1057.014,80.0
1057.156,80.0
1057.298,80.0
1057.44,80.0
1057.582,80.0
1057.724,80.0
1057.866,80.0
1058.008,80.0
1058.15,80.0
1058.292,80.0
1058.434,80.0
1058.576,80.0
1058.718,80.0
1058.86,80.0
1059.002,80.0
1059.144,80.0
1059.286,80.0
1059.428,80.0
1059.57,80.0
1059.712,80.0
1059.854,80.0
1059.996,80.0
1060.138,80.0
1060.28,80.0
1060.422,80.0
1060.564,80.0
1060.706,80.0
1060.848,80.0
1060.99,80.0
1061.132,80.0
1061.274,80.0
1061.416,80.0
1061.558,80.0
1061.7,80.0
1061.842,80.0
1061.984,80.0
1062.126,80.0
1062.268,80.0
1062.41,80.0
1062.552,80.0
1062.694,80.0
1062.836,80.0
1062.978,80.0
1063.12,80.0
1063.262,80.0
1063.404,80.0
1063.546,80.0
1063.688,80.0
1063.83,80.0
1063.972,80.0
1064.114,80.0
1064.256,80.0
1064.398,80.0
1064.54,80.0
1064.682,80.0
1064.824,80.0
1064.966,80.0
1065.108,80.0
1065.25,80.0
1065.392,80.0
1065.534,80.0
1065.676,80.0
1065.818,80.0
1065.96,80.0
1066.102,80.0
1066.244,80.0
1066.386,80.0
1066.528,80.0
1066.67,80.0
1066.812,80.0
1066.954,80.0
1067.096,80.0
1067.238,80.0
1067.38,80.0
1067.522,80.0
1067.664,80.0
1067.806,80.0
1067.948,80.0
1068.09,80.0
1068.232,80.0
1068.374,80.0
1068.516,80.0
1068.658,80.0
1068.8,80.0
1068.942,80.0
1069.084,80.0
1069.226,80.0
1069.368,80.0
1069.51,80.0
1069.652,80.0
1069.794,80.0
1069.936,80.0
1070.078,80.0
1070.22,80.0
1070.362,80.0
1070.504,80.0
1070.646,80.0
1070.788,80.0
1070.93,80.0
1071.072,80.0
1071.214,80.0
1071.356,80.0
1071.498,80.0
1071.64,80.0
1071.782,80.0
1071.924,80.0
1072.066,80.0
1072.208,80.0
1072.35,80.0
1072.492,80.0
1072.634,80.0
1072.776,80.0
1072.918,80.0
1073.06,80.0
1073.202,80.0
1073.344,80.0
1073.486,80.0
1073.628,80.0
1073.77,80.0
1073.912,80.0
1074.054,80.0
1074.196,80.0
1074.338,80.0
1074.48,80.0
1074.622,80.0
1074.764,80.0
1074.906,80.0
1075.048,80.0
1075.19,80.0
1075.332,80.0
1075.474,80.0
1075.616,80.0
1075.758,80.0
1075.9,80.0
1076.042,80.0
1076.184,80.0
1076.326,80.0
1076.468,80.0
1076.61,80.0
1076.752,80.0
1076.894,80.0
1077.036,80.0
1077.178,80.0
1077.32,80.0
1077.462,80.0
1077.604,80.0
1077.746,80.0
1077.888,80.0
1078.03,80.0
1078.172,80.0
1078.314,80.0
1078.456,80.0
1078.598,80.0
1078.74,80.0
1078.882,80.0
1079.024,80.0
1079.166,80.0
1079.308,80.0
1079.45,80.0
1079.592,80.0
1079.734,80.0
1079.876,80.0
1080.018,80.0
1080.16,80.0
1080.302,80.0
1080.444,80.0
1080.586,80.0
1080.728,80.0
1080.87,80.0
1081.012,80.0
1081.154,80.0
1081.296,80.0
1081.438,80.0
1081.58,80.0
1081.722,80.0
1081.864,80.0
1082.006,80.0
1082.148,80.0
1082.29,80.0
1082.432,80.0
1082.574,80.0
1082.716,80.0
1082.858,80.0
1083.0,80.0
1083.142,80.0
1083.284,80.0
1083.426,80.0
1083.568,80.0
1083.71,80.0
1083.852,80.0
1083.994,80.0
1084.136,80.0
1084.278,80.0
1084.42,80.0
1084.562,80.0
1084.704,80.0
1084.846,80.0
1084.988,80.0
1085.13,80.0
1085.272,80.0
1085.414,80.0
1085.556,80.0
1085.698,80.0
1085.84,80.0
1085.982,80.0
1086.124,80.0
1086.266,80.0
1086.408,80.0
1086.55,80.0
1086.692,80.0
1086.834,80.0
1086.976,80.0
1087.118,80.0
1087.26,80.0
1087.402,80.0
1087.544,80.0
1087.686,80.0
1087.828,80.0
1087.97,80.0
1088.112,80.0
1088.254,80.0
1088.396,80.0
1088.538,80.0
1088.68,80.0
1088.822,80.0
1088.964,80.0
1089.106,80.0
1089.248,80.0
1089.39,80.0
1089.532,80.0
1089.674,80.0
1089.816,80.0
1089.958,80.0
1090.1,80.0
1090.242,80.0
1090.384,80.0
1090.526,80.0
1090.668,80.0
1090.81,80.0
1090.952,80.0
1091.094,80.0
1091.236,80.0
1091.378,80.0
1091.52,80.0
1091.662,80.0
1091.804,80.0
1091.946,80.0
1092.088,80.0
1092.23,80.0
1092.372,80.0
1092.514,80.0
1092.656,80.0
1092.798,80.0
1092.94,80.0
1093.082,80.0
1093.224,80.0
1093.366,80.0
1093.508,80.0
1093.65,80.0
1093.792,80.0
1093.934,80.0
1094.076,80.0
1094.218,80.0
1094.36,80.0
1094.502,80.0
1094.644,80.0
1094.786,80.0
1094.928,80.0
1095.07,80.0
1095.212,80.0
1095.354,80.0
1095.496,80.0
1095.638,80.0
1095.78,80.0
1095.922,80.0
1096.064,80.0
1096.206,80.0
1096.348,80.0
1096.49,80.0
1096.632,80.0
1096.774,80.0
1096.916,80.0
1097.058,80.0
1097.2,80.0
1097.342,80.0
1097.484,80.0
1097.626,80.0
1097.768,80.0
1097.91,80.0
1098.052,80.0
1098.194,80.0
1098.336,80.0
1098.478,80.0
1098.62,80.0
1098.762,80.0
1098.904,80.0
1099.046,80.0
1099.188,80.0
1099.33,80.0
1099.472,80.0
1099.614,80.0
1099.756,80.0
1099.898,80.0
1100.04,80.0
1100.182,80.0
1100.324,80.0
1100.466,80.0
1100.608,80.0
1100.75,80.0
1100.892,80.0
1101.034,80.0
1101.176,80.0
1101.318,80.0
1101.46,80.0
1101.602,80.0
1101.744,80.0
1101.886,80.0
1102.028,80.0
1102.17,80.0
1102.312,80.0
1102.454,80.0
1102.596,80.0
1102.738,80.0
1102.88,80.0
1103.022,80.0
1103.164,80.0
1103.306,80.0
1103.448,80.0
1103.59,80.0
1103.732,80.0
1103.874,80.0
1104.016,80.0
1104.158,80.0
1104.3,80.0
1104.442,80.0
1104.584,80.0
1104.726,80.0
1104.868,80.0
1105.01,80.0
1105.152,80.0
1105.294,80.0
1105.436,80.0
1105.578,80.0
1105.72,80.0
1105.862,80.0
1106.004,80.0
1106.146,80.0
1106.288,80.0
1106.43,80.0
1106.572,80.0
1106.714,80.0
1106.856,80.0
1106.998,80.0
1107.14,80.0
1107.282,80.0
1107.424,80.0
1107.566,80.0
1107.708,80.0
1107.85,80.0
1107.992,80.0
1108.134,80.0
1108.276,80.0
1108.418,80.0
1108.56,80.0
1108.702,80.0
1108.844,80.0
1108.986,80.0
1109.128,80.0
1109.27,80.0
1109.412,80.0
1109.554,80.0
1109.696,80.0
1109.838,80.0
1109.98,80.0
1110.122,80.0
1110.264,80.0
1110.406,80.0
1110.548,80.0
1110.69,80.0
1110.832,80.0
1110.974,80.0
1111.116,80.0
1111.258,80.0
1111.4,80.0
1111.542,80.0
1111.684,80.0
1111.826,80.0
1111.968,80.0
1112.11,80.0
1112.252,80.0
1112.394,80.0
1112.536,80.0
1112.678,80.0
1112.82,80.0
1112.962,80.0
1113.104,80.0
1113.246,80.0
1113.388,80.0
1113.53,80.0
1113.672,80.0
1113.814,80.0
1113.956,80.0
1114.098,80.0
1114.24,80.0
1114.382,80.0
1114.524,80.0
1114.666,80.0
1114.808,80.0
1114.95,80.0
1115.092,80.0
1115.234,80.0
1115.376,80.0
1115.518,80.0
1115.66,80.0
1115.802,80.0
1115.944,80.0
1116.086,80.0
1116.228,80.0
1116.37,80.0
1116.512,80.0
1116.654,80.0
1116.796,80.0
1116.938,80.0
1117.08,80.0
1117.222,80.0
1117.364,80.0
1117.506,80.0
1117.648,80.0
1117.79,80.0
1117.932,80.0
1118.074,80.0
1118.216,80.0
1118.358,80.0
1118.5,80.0
1118.642,80.0
1118.784,80.0
1118.926,80.0
1119.068,80.0
1119.21,80.0
1119.352,80.0
1119.494,80.0
1119.636,80.0
1119.778,80.0
1119.92,80.0
1120.062,80.0
1120.204,80.0
1120.346,80.0
1120.488,80.0
1120.63,80.0
1120.772,80.0
1120.914,80.0
1121.056,80.0
1121.198,80.0
1121.34,80.0
1121.482,80.0
1121.624,80.0
1121.766,80.0
1121.908,80.0
1122.05,80.0
1122.192,80.0
1122.334,80.0
1122.476,80.0
1122.618,80.0
1122.76,80.0
1122.902,80.0
1123.044,80.0
1123.186,80.0
1123.328,80.0
1123.47,80.0
1123.612,80.0
1123.754,80.0
1123.896,80.0
1124.038,80.0
1124.18,80.0
1124.322,80.0
1124.464,80.0
1124.606,80.0
1124.748,80.0
1124.89,80.0
1125.032,80.0
1125.174,80.0
1125.316,80.0
1125.458,80.0
1125.6,80.0
1125.742,80.0
1125.884,80.0
1126.026,80.0
1126.168,80.0
1126.31,80.0
1126.452,80.0
1126.594,80.0
1126.736,80.0
1126.878,80.0
1127.02,80.0
1127.162,80.0
1127.304,80.0
1127.446,80.0
1127.588,80.0
1127.73,80.0
1127.872,80.0
1128.014,80.0
1128.156,80.0
1128.298,80.0
1128.44,80.0
1128.582,80.0
1128.724,80.0
1128.866,80.0
1129.008,80.0
1129.15,80.0
1129.292,80.0
1129.434,80.0
1129.576,80.0
1129.718,80.0
1129.86,80.0
1130.002,80.0
1130.144,80.0
1130.286,80.0
1130.428,80.0
1130.57,80.0
1130.712,80.0
1130.854,80.0
1130.996,80.0
1131.138,80.0
1131.28,80.0
1131.422,80.0
1131.564,80.0
1131.706,80.0
1131.848,80.0
1131.99,80.0
1132.132,80.0
1132.274,80.0
1132.416,80.0
1132.558,80.0
1132.7,80.0
1132.842,80.0
1132.984,80.0
1133.126,80.0
1133.268,80.0
1133.41,80.0
1133.552,80.0
1133.694,80.0
1133.836,80.0
1133.978,80.0
1134.12,80.0
1134.262,80.0
1134.404,80.0
1134.546,80.0
1134.688,80.0
1134.83,80.0
1134.972,80.0
1135.114,80.0
1135.256,80.0
1135.398,80.0
1135.54,80.0
1135.682,80.0
1135.824,80.0
1135.966,80.0
1136.108,80.0
1136.25,80.0
1136.392,80.0
1136.534,80.0
1136.676,80.0
1136.818,80.0
1136.96,80.0
1137.102,80.0
1137.244,80.0
1137.386,80.0
1137.528,80.0
1137.67,80.0
1137.812,80.0
1137.954,80.0
1138.096,80.0
1138.238,80.0
1138.38,80.0
1138.522,80.0
1138.664,80.0
1138.806,80.0
1138.948,80.0
1139.09,80.0
1139.232,80.0
1139.374,80.0
1139.516,80.0
1139.658,80.0
1139.8,80.0
1139.942,80.0
1140.084,80.0
1140.226,80.0
1140.368,80.0
1140.51,80.0
1140.652,80.0
1140.794,80.0
1140.936,80.0
1141.078,80.0
1141.22,80.0
1141.362,80.0
1141.504,80.0
1141.646,80.0
1141.788,80.0
1141.93,80.0
1142.072,80.0
1142.214,80.0
1142.356,80.0
1142.498,80.0
1142.64,80.0
1142.782,80.0
1142.924,80.0
1143.066,80.0
1143.208,80.0
1143.35,80.0
1143.492,80.0
1143.634,80.0
1143.776,80.0
1143.918,80.0
1144.06,80.0
1144.202,80.0
1144.344,80.0
1144.486,80.0
1144.628,80.0
1144.77,80.0
1144.912,80.0
1145.054,80.0
1145.196,80.0
1145.338,80.0
1145.48,80.0
1145.622,80.0
1145.764,80.0
1145.906,80.0
1146.048,80.0
1146.19,80.0
1146.332,80.0
1146.474,80.0
1146.616,80.0
1146.758,80.0
1146.9,80.0
1147.042,80.0
1147.184,80.0
1147.326,80.0
1147.468,80.0
1147.61,80.0
1147.752,80.0
1147.894,80.0
1148.036,80.0
1148.178,80.0
1148.32,80.0
1148.462,80.0
1148.604,80.0
1148.746,80.0
1148.888,80.0
1149.03,80.0
1149.172,80.0
1149.314,80.0
1149.456,80.0
1149.598,80.0
1149.74,80.0
1149.882,80.0
1150.024,80.0
1150.166,80.0
1150.308,80.0
1150.45,80.0
1150.592,80.0
1150.734,80.0
1150.876,80.0
1151.018,80.0
1151.16,80.0
1151.302,80.0
1151.444,80.0
1151.586,80.0
1151.728,80.0
1151.87,80.0
1152.012,80.0
1152.154,80.0
1152.296,80.0
1152.438,80.0
1152.58,80.0
1152.722,80.0
1152.864,80.0
1153.006,80.0
1153.148,80.0
1153.29,80.0
1153.432,80.0
1153.574,80.0
1153.716,80.0
1153.858,80.0
1154.0,80.0
1154.142,80.0
1154.284,80.0
1154.426,80.0
1154.568,80.0
1154.71,80.0
1154.852,80.0
1154.994,80.0
1155.136,80.0
1155.278,80.0
1155.42,80.0
1155.562,80.0
1155.704,80.0
1155.846,80.0
1155.988,80.0
1156.13,80.0
1156.272,80.0
1156.414,80.0
1156.556,80.0
1156.698,80.0
1156.84,80.0
1156.982,80.0
1157.124,80.0
1157.266,80.0
1157.408,80.0
1157.55,80.0
1157.692,80.0
1157.834,80.0
1157.976,80.0
1158.118,80.0
1158.26,80.0
1158.402,80.0
1158.544,80.0
1158.686,80.0
1158.828,80.0
1158.97,80.0
1159.112,80.0
1159.254,80.0
1159.396,80.0
1159.538,80.0
1159.68,80.0
1159.822,80.0
1159.964,80.0
1160.106,80.0
1160.248,80.0
1160.39,80.0
1160.532,80.0
1160.674,80.0
1160.816,80.0
1160.958,80.0
1161.1,80.0
1161.242,80.0
1161.384,80.0
1161.526,80.0
1161.668,80.0
1161.81,80.0
1161.952,80.0
1162.094,80.0
1162.236,80.0
1162.378,80.0
1162.52,80.0
1162.662,80.0
1162.804,80.0
1162.946,80.0
1163.088,80.0
1163.23,80.0
1163.372,80.0
1163.514,80.0
1163.656,80.0
1163.798,80.0
1163.94,80.0
1164.082,80.0
1164.224,80.0
1164.366,80.0
1164.508,80.0
1164.65,80.0
1164.792,80.0
1164.934,80.0
1165.076,80.0
1165.218,80.0
1165.36,80.0
1165.502,80.0
1165.644,80.0
1165.786,80.0
1165.928,80.0
1166.07,80.0
1166.212,80.0
1166.354,80.0
1166.496,80.0
1166.638,80.0
1166.78,80.0
1166.922,80.0
1167.064,80.0
1167.206,80.0
1167.348,80.0
1167.49,80.0
1167.632,80.0
1167.774,80.0
1167.916,80.0
1168.058,80.0
1168.2,80.0
1168.342,80.0
1168.484,80.0
1168.626,80.0
1168.768,80.0
1168.91,80.0
1169.052,80.0
1169.194,80.0
1169.336,80.0
1169.478,80.0
1169.62,80.0
1169.762,80.0
1169.904,80.0
1170.046,80.0
1170.188,80.0
1170.33,80.0
1170.472,80.0
1170.614,80.0
1170.756,80.0
1170.898,80.0
