# Obtained using Skycalc tool from ESO webpage
# Not including telescope emissivity
Wave[nm] Radiance[photons/s/m**2/micron/arsec**2]
1550 7127.64
1550.02919 53750.8
1550.05839 113032
1550.08759 106418
1550.11678 113018
1550.14598 53763.4
1550.17518 7311.5
1550.20438 909.405
1550.23357 704.295
1550.26277 702.333
1550.29197 701.942
1550.32117 701.539
1550.35037 701.127
1550.37958 700.71
1550.40878 700.288
1550.43798 699.863
1550.46718 699.43
1550.49639 698.941
1550.52559 698.242
1550.5548 697.255
1550.584 696.416
1550.61321 696.059
1550.64241 695.951
1550.67162 695.994
1550.70083 695.81
1550.73004 695.518
1550.75925 695.217
1550.78845 694.791
1550.81766 694.164
1550.84687 696.439
1550.87609 1079.1
1550.9053 13336.9
1550.93451 111062
1550.96372 295156
1550.99293 295373
1551.02215 111251
1551.05136 13359.8
1551.08058 1075.15
1551.10979 691.406
1551.13901 688.735
1551.16822 688.639
1551.19744 688.391
1551.22666 688.316
1551.25588 688.198
1551.2851 687.901
1551.31431 687.508
1551.34353 687.066
1551.37275 686.561
1551.40197 685.979
1551.4312 685.498
1551.46042 685.245
1551.48964 684.916
1551.51886 684.373
1551.54809 683.662
1551.57731 682.893
1551.60654 682.387
1551.63576 682.18
1551.66499 683.711
1551.69421 821.45
1551.72344 4384.83
1551.75267 31108.5
1551.78189 80794.3
1551.81112 80863.7
1551.84035 30816.4
1551.86958 4135.92
1551.89881 784.737
1551.92804 679.446
1551.95727 677.803
1551.98651 676.074
1552.01574 672.365
1552.04497 668.453
1552.0742 669.414
1552.10344 673.015
1552.13267 674.794
1552.16191 674.837
1552.19114 674.217
1552.22038 673.66
1552.24962 673.627
1552.27885 673.618
1552.30809 673.298
1552.33733 672.902
1552.36657 672.617
1552.39581 672.305
1552.42505 671.923
1552.45429 671.506
1552.48353 671.071
1552.51277 670.653
1552.54201 670.238
1552.57126 669.726
1552.6005 668.924
1552.62974 667.869
1552.65899 667.338
1552.68823 667.573
1552.71748 667.651
1552.74672 667.376
1552.77597 666.985
1552.80522 666.539
1552.83447 666.048
1552.86371 665.586
1552.89296 665.207
1552.92221 664.883
1552.95146 664.507
1552.98071 664.077
1553.00996 663.661
1553.03921 663.25
1553.06847 662.759
1553.09772 662.035
1553.12697 661.096
1553.15623 660.512
1553.18548 660.542
1553.21474 660.584
1553.24399 660.359
1553.27325 659.995
1553.3025 659.582
1553.33176 659.163
1553.36102 658.769
1553.39028 658.376
1553.41954 657.971
1553.44879 657.554
1553.47805 657.114
1553.50731 656.673
1553.53658 656.281
1553.56584 655.897
1553.5951 655.479
1553.62436 655.005
1553.65363 654.508
1553.68289 654.104
1553.71215 653.762
1553.74142 653.344
1553.77068 652.829
1553.79995 652.349
1553.82922 652.008
1553.85848 658.106
1553.88775 1470.85
1553.91702 26874.8
1553.94629 210441
1553.97556 420237
1554.00483 211259
1554.0341 53088.9
1554.06337 211195
1554.09264 420108
1554.12191 210374
1554.15118 26862
1554.18046 1464.59
1554.20973 651.265
1554.239 643.826
1554.26828 642.664
1554.29755 643.013
1554.32683 644.038
1554.35611 644.395
1554.38538 644.219
1554.41466 643.886
1554.44394 643.504
1554.47322 647.546
1554.5025 1211.51
1554.53178 18849.8
1554.56106 146857
1554.59034 310240
1554.61962 291588
1554.6489 308707
1554.67818 146041
1554.70747 18744.8
1554.73675 1209.91
1554.76603 823.066
1554.79532 2081.98
1554.8246 3525.77
1554.85389 2081.61
1554.88318 817.833
1554.91246 642.58
1554.94175 636.534
1554.97104 635.975
1555.00033 635.469
1555.02961 635.086
1555.0589 634.765
1555.08819 634.438
1555.11749 634.068
1555.14678 633.656
1555.17607 633.189
1555.20536 632.593
1555.23465 632.002
1555.26395 631.722
1555.29324 631.521
1555.32254 631.198
1555.35183 630.808
1555.38113 630.402
1555.41042 629.994
1555.43972 629.583
1555.46902 629.173
1555.49831 628.761
1555.52761 628.349
1555.55691 627.935
1555.58621 627.521
1555.61551 627.109
1555.64481 626.7
1555.67411 626.29
1555.70342 625.877
1555.73272 625.464
1555.76202 625.05
1555.79132 624.64
1555.82063 624.229
1555.84993 623.818
1555.87924 623.404
1555.90854 622.98
1555.93785 622.505
1555.96716 622.022
1555.99646 621.67
1556.02577 621.321
1556.05508 620.92
1556.08439 620.502
1556.1137 620.076
1556.14301 619.634
1556.17232 619.337
1556.20163 620.274
1556.23094 621.519
1556.26025 619.519
1556.28957 617.539
1556.31888 616.646
1556.34819 616.194
1556.37751 616.164
1556.40682 616.991
1556.43614 618.219
1556.46546 617.226
1556.49477 615.356
1556.52409 614.385
1556.55341 613.916
1556.58272 613.506
1556.61204 613.094
1556.64136 612.676
1556.67068 612.258
1556.7 611.848
1556.72932 611.438
1556.75865 611.017
1556.78797 610.557
1556.81729 609.942
1556.84661 609.238
1556.87594 610.333
1556.90526 797.907
1556.93459 6916.68
1556.96391 59226.8
1556.99324 183069
1557.02257 222285
1557.05189 93540
1557.08122 11663.6
1557.11055 947.235
1557.13988 608.319
1557.16921 605.247
1557.19854 604.814
1557.22787 604.381
1557.2572 604.203
1557.28653 605.699
1557.31586 607.448
1557.3452 604.685
1557.37453 602.385
1557.40386 611.809
1557.4332 925.641
1557.46253 3195.27
1557.49187 5789.13
1557.5212 3194.51
1557.55054 924.17
1557.57988 609.89
1557.60921 601.521
1557.63855 603.457
1557.66789 600.653
1557.69723 598.138
1557.72657 597.43
1557.75591 596.989
1557.78525 596.557
1557.81459 596.161
1557.84394 595.767
1557.87328 595.359
1557.90262 594.943
1557.93196 594.514
1557.96131 594.076
1557.99065 593.659
1558.02 593.248
1558.04935 592.77
1558.07869 592.07
1558.10804 591.214
1558.13739 590.773
1558.16673 590.737
1558.19608 590.584
1558.22543 590.235
1558.25478 589.872
1558.28413 589.516
1558.31348 589.127
1558.34283 588.708
1558.37219 588.304
1558.40154 587.912
1558.43089 587.509
1558.46025 587.093
1558.4896 586.663
1558.51896 586.199
1558.54831 585.718
1558.57767 585.29
1558.60702 584.929
1558.63638 584.557
1558.66574 584.126
1558.6951 583.561
1558.72445 582.62
1558.75381 581.393
1558.78317 580.875
1558.81253 581.231
1558.84189 581.383
1558.87126 581.101
1558.90062 580.725
1558.92998 580.375
1558.95934 580.025
1558.98871 579.641
1559.01807 579.22
1559.04744 578.771
1559.0768 578.313
1559.10617 577.882
1559.13553 577.511
1559.1649 577.153
1559.19427 576.76
1559.22364 576.334
1559.253 575.884
1559.28237 575.379
1559.31174 574.694
1559.34111 574.018
1559.37048 573.824
1559.39986 573.686
1559.42923 573.362
1559.4586 572.958
1559.48797 572.496
1559.51735 572.019
1559.54672 571.617
1559.5761 571.278
1559.60547 570.907
1559.63485 579.342
1559.66422 1712.25
1559.6936 37957
1559.72298 326796
1559.75236 870251
1559.78173 869892
1559.81111 326476
1559.84049 37907.4
1559.86987 1707.52
1559.89925 575.648
1559.92864 566.412
1559.95802 566.007
1559.9874 565.568
1560.01678 565.008
1560.04617 564.176
1560.07555 563.496
1560.10494 579.823
1560.13432 1095.82
1560.16371 4823.77
1560.19309 9084.14
1560.22248 4823.02
1560.25187 1094.47
1560.28125 578.098
1560.31064 561.14
1560.34003 560.506
1560.36942 559.984
1560.39881 559.615
1560.4282 559.331
1560.45759 558.979
1560.48699 558.572
1560.51638 558.171
1560.54577 557.769
1560.57516 557.356
1560.60456 556.935
1560.63395 556.501
1560.66335 556.046
1560.69274 555.578
1560.72214 555.144
1560.75154 554.642
1560.78093 553.98
1560.81033 553.346
1560.83973 552.68
1560.86913 551.912
1560.89853 551.711
1560.92793 551.872
1560.95733 551.792
1560.98673 551.478
1561.01613 551.089
1561.04554 550.688
1561.07494 550.285
1561.10434 549.885
1561.13375 549.483
1561.16315 549.06
1561.19256 548.579
1561.22196 548.022
1561.25137 547.501
1561.28078 547.142
1561.31018 546.845
1561.33959 546.444
1561.369 545.988
1561.39841 545.655
1561.42782 545.334
1561.45723 544.951
1561.48664 544.542
1561.51605 544.132
1561.54546 543.722
1561.57487 543.311
1561.60429 542.897
1561.6337 542.483
1561.66311 542.067
1561.69253 541.652
1561.72194 541.239
1561.75136 540.823
1561.78078 540.404
1561.81019 539.993
1561.83961 539.581
1561.86903 539.164
1561.89845 538.746
1561.92787 538.33
1561.95728 537.911
1561.9867 537.481
1562.01613 537.042
1562.04555 536.609
1562.07497 536.183
1562.10439 535.727
1562.13381 535.174
1562.16324 534.25
1562.19266 532.403
1562.22209 530.543
1562.25151 530.891
1562.28094 532.055
1562.31036 532.451
1562.33979 532.229
1562.36922 531.62
1562.39864 530.283
1562.42807 528.581
1562.4575 528.337
1562.48693 529.185
1562.51636 529.59
1562.54579 529.455
1562.57522 529.137
1562.60465 528.756
1562.63409 528.339
1562.66352 527.913
1562.69295 527.499
1562.72239 527.062
1562.75182 526.608
1562.78126 526.393
1562.81069 550.654
1562.84013 1321.76
1562.86957 6896.95
1562.899 13268.7
1562.92844 6895.46
1562.95788 1318.53
1562.98732 547.449
1563.01676 666.753
1563.0462 5160.65
1563.07564 38639.3
1563.10508 109064
1563.13452 313258
1563.16396 556543
1563.19341 276361
1563.22285 34983
1563.25229 1596.5
1563.28174 527.658
1563.31118 518.867
1563.34063 518.464
1563.37007 518.054
1563.39952 517.643
1563.42897 517.232
1563.45842 516.819
1563.48787 516.404
1563.51731 515.989
1563.54676 515.573
1563.57621 515.156
1563.60566 514.741
1563.63512 514.324
1563.66457 513.903
1563.69402 513.478
1563.72347 513.041
1563.75293 512.571
1563.78238 511.975
1563.81183 511.006
1563.84129 509.867
1563.87074 509.555
1563.9002 509.898
1563.92966 509.956
1563.95911 509.673
1563.98857 509.289
1564.01803 508.889
1564.04749 508.487
1564.07695 508.074
1564.10641 507.635
1564.13587 507.112
1564.16533 506.348
1564.19479 505.457
1564.22425 505.05
1564.25372 505.01
1564.28318 504.75
1564.31264 504.285
1564.34211 503.481
1564.37157 502.015
1564.40104 500.832
1564.43051 501.152
1564.45997 501.898
1564.48944 502.041
1564.51891 501.787
1564.54838 501.428
1564.57784 501.038
1564.60731 500.638
1564.63678 500.232
1564.66625 499.823
1564.69573 499.412
1564.7252 498.998
1564.75467 498.583
1564.78414 498.172
1564.81362 497.761
1564.84309 497.348
1564.87256 496.934
1564.90204 496.519
1564.93152 496.105
1564.96099 495.689
1564.99047 495.27
1565.01995 494.851
1565.04942 494.435
1565.0789 494.011
1565.10838 493.558
1565.13786 493.046
1565.16734 492.54
1565.19682 492.174
1565.2263 491.856
1565.25578 491.47
1565.28527 490.993
1565.31475 490.36
1565.34423 489.651
1565.37372 504.316
1565.4032 2417.54
1565.43268 62809.5
1565.46217 520447
1565.49166 1.21248e+06
1565.52114 951015
1565.55063 300427
1565.58012 104142
1565.60961 154012
1565.6391 89835.2
1565.66858 18180.3
1565.69807 2356.17
1565.72757 11121.3
1565.75706 74260.4
1565.78655 142522
1565.81604 70813.2
1565.84553 9252.05
1565.87503 755.077
1565.90452 482.894
1565.93401 480.985
1565.96351 481
1565.99301 480.621
1566.0225 480.156
1566.052 479.514
1566.0815 478.74
1566.11099 478.579
1566.14049 478.625
1566.16999 478.42
1566.19949 478.092
1566.22899 477.659
1566.25849 477.198
1566.28799 476.806
1566.31749 476.463
1566.347 476.08
1566.3765 475.582
1566.406 475.039
1566.43551 474.608
1566.46501 474.259
1566.49451 473.945
1566.52402 478.419
1566.55353 631.478
1566.58303 1740.08
1566.61254 3007.02
1566.64205 1739.07
1566.67156 629.53
1566.70107 475.802
1566.73057 470.605
1566.76008 470.111
1566.7896 469.629
1566.81911 469.034
1566.84862 468.327
1566.87813 467.565
1566.90764 466.911
1566.93716 466.784
1566.96667 466.826
1566.99618 466.71
1567.0257 466.765
1567.05522 471.999
1567.08473 638.567
1567.11425 1844.88
1567.14377 3223.76
1567.17328 1844.66
1567.2028 638.525
1567.23232 472.313
1567.26184 467.315
1567.29136 467.125
1567.32088 466.685
1567.3504 466.527
1567.37992 467.05
1567.40945 467.338
1567.43897 467.007
1567.46849 466.846
1567.49802 467.012
1567.52754 466.791
1567.55707 466.674
1567.58659 466.806
1567.61612 467.138
1567.64564 467.63
1567.67517 467.674
1567.7047 466.544
1567.73423 465.382
1567.76376 466.32
1567.79329 467.429
1567.82282 467.618
1567.85235 476.682
1567.88188 767.434
1567.91141 2875.55
1567.94094 5287.59
1567.97047 2878.54
1568.00001 769.336
1568.02954 477.025
1568.05908 467.307
1568.08861 465.92
1568.11815 464.71
1568.14768 466.235
1568.17722 468.483
1568.20676 469.45
1568.23629 469.54
1568.26583 469.089
1568.29537 507.739
1568.32491 1802.1
1568.35445 11192.1
1568.38399 22223.7
1568.41353 13747.6
1568.44307 7038.42
1568.47262 3346.82
1568.50216 933.533
1568.5317 493.075
1568.56125 462.688
1568.59079 463.448
1568.62034 465.393
1568.64988 468.056
1568.67943 469.71
1568.70897 469.262
1568.73852 465.408
1568.76807 460.006
1568.79762 461.493
1568.82717 466.859
1568.85672 469.025
1568.88627 467.864
1568.91582 466.714
1568.94537 466.945
1568.97492 462.642
1569.00447 455.633
1569.03403 458.735
1569.06358 466.165
1569.09313 469.899
1569.12269 470.583
1569.15224 471.38
1569.1818 539.99
1569.21135 1371.69
1569.24091 4840.09
1569.27047 7774.82
1569.30003 3942.84
1569.32958 899.473
1569.35914 484.809
1569.3887 471.137
1569.41826 468.78
1569.44782 459.478
1569.47738 444.61
1569.50695 444.44
1569.53651 457.642
1569.56607 467.266
1569.59564 470.865
1569.6252 471.824
1569.65476 471.547
1569.68433 485.628
1569.71389 1033.45
1569.74346 5093.67
1569.77303 9767.43
1569.80259 5123.48
1569.83216 1051.08
1569.86173 487.518
1569.8913 470.046
1569.92087 470.126
1569.95044 464.282
1569.98001 443.002
1570.00958 425.407
1570.03915 445.94
1570.06873 464.857
1570.0983 468.868
1570.12787 474.313
1570.15745 1005.89
1570.18702 17888.3
1570.2166 148683
1570.24617 367747
1570.27575 325800
1570.30532 111978
1570.3349 12808.5
1570.36448 844.223
1570.39406 473.61
1570.42364 469.78
1570.45322 469.196
1570.4828 459.852
1570.51238 459.008
1570.54196 1252.43
1570.57154 7155.94
1570.60112 13912.2
1570.63071 7197.66
1570.66029 1313.67
1570.68987 498.714
1570.71946 470.489
1570.74904 464.325
1570.77863 441.527
1570.80821 406.204
1570.8378 409.489
1570.86739 442.793
1570.89698 465.14
1570.92657 472.18
1570.95615 473.69
1570.98574 473.762
1571.01533 484.453
1571.04492 865.538
1571.07452 3696.08
1571.10411 8304.94
1571.1337 15332.7
1571.16329 24204.9
1571.19289 12149.2
1571.22248 1929.45
1571.25208 518.39
1571.28167 474.076
1571.31127 472.024
1571.34086 460.904
1571.37046 424.651
1571.40006 384.921
1571.42965 402.548
1571.45925 446.867
1571.48885 468.204
1571.51845 472.185
1571.54805 472.171
1571.57765 471.742
1571.60725 471.55
1571.63686 464.097
1571.66646 431.215
1571.69606 384.218
1571.72567 389.703
1571.75527 435.896
1571.78487 464.669
1571.81448 473.252
1571.84408 512.794
1571.87369 1684.26
1571.9033 10147.4
1571.93291 19817
1571.96251 10125.8
1571.99212 1610.45
1572.02173 400.512
1572.05134 412.935
1572.08095 459.613
1572.11056 471.419
1572.14017 474.038
1572.16979 475.525
1572.1994 475.772
1572.22901 474.027
1572.25862 466.204
1572.28824 437.278
1572.31785 385.472
1572.34747 372.597
1572.37708 478.324
1572.4067 1958.8
1572.43632 11949.6
1572.46593 23184.1
1572.49555 11799.7
1572.52517 1890.64
1572.55479 519.108
1572.58441 466.858
1572.61403 430.388
1572.64365 375.719
1572.67327 379.915
1572.70289 432.289
1572.73252 466.063
1572.76214 475.464
1572.79176 477.397
1572.82139 477.611
1572.85101 477.204
1572.88064 476.272
1572.91026 471.557
1572.93989 449.017
1572.96952 395.698
1572.99914 366.143
1573.02877 416.382
1573.0584 462.058
1573.08803 475.188
1573.11766 478.174
1573.14729 479.041
1573.17692 479.464
1573.20655 524.116
1573.23618 1943.56
1573.26582 12209.9
1573.29545 23915.5
1573.32508 12121.6
1573.35472 1866.34
1573.38435 494.606
1573.41399 472.991
1573.44362 478.258
1573.47326 479.731
1573.5029 480.142
1573.53254 479.958
1573.56217 479.078
1573.59181 475.286
1573.62145 457.946
1573.65109 412.539
1573.68073 380.367
1573.71037 476.375
1573.74001 2305.97
1573.76966 15278.9
1573.7993 30495.4
1573.82894 16311
1573.85859 2918.18
1573.88823 2123.48
1573.91787 12613.4
1573.94752 24737.8
1573.97717 12592.5
1574.00681 1938.93
1574.03646 440.952
1574.06611 427.768
1574.09576 466.175
1574.1254 479.217
1574.15505 481.859
1574.1847 482.194
1574.21435 481.756
1574.244 481.627
1574.27366 481.668
1574.30331 480.19
1574.33296 470.768
1574.36261 444.038
1574.39227 417.87
1574.42192 430.509
1574.45158 462.348
1574.48123 478.912
1574.51089 482.983
1574.54055 483.958
1574.5702 484.508
1574.59986 540.46
1574.62952 2306.04
1574.65918 15069.9
1574.68884 29656.2
1574.7185 15058.5
1574.74816 2271.44
1574.77782 494.718
1574.80748 461.03
1574.83714 478.149
1574.8668 483.023
1574.89647 484.901
1574.92613 485.675
1574.9558 485.943
1574.98546 485.872
1575.01513 485.147
1575.04479 483.814
1575.07446 483.61
1575.10413 573.172
1575.13379 2947.25
1575.16346 19109.5
1575.19313 37163.5
1575.2228 18751.2
1575.25247 2764.91
1575.28214 556.54
1575.31181 487.238
1575.34148 487.178
1575.37116 487.254
1575.40083 486.932
1575.4305 486.177
1575.46018 485.228
1575.48985 484.868
1575.51952 486.225
1575.5492 487.133
1575.57888 487.054
1575.60855 486.615
1575.63823 484.616
1575.66791 478.121
1575.69759 463.974
1575.72727 453.853
1575.75694 467.46
1575.78662 481.369
1575.81631 485.544
1575.84599 486.605
1575.87567 487.228
1575.90535 548.21
1575.93503 1948.58
1575.96472 11127.5
1575.9944 22922.2
1576.02409 26275.4
1576.05377 40636.4
1576.08346 35482.3
1576.11314 12573.8
1576.14283 1793.89
1576.17252 513.092
1576.2022 484.909
1576.23189 487.386
1576.26158 487.91
1576.29127 487.797
1576.32096 486.77
1576.35065 485.618
1576.38034 486.682
1576.41003 487.299
1576.43973 485.328
1576.46942 546.979
1576.49911 2846.43
1576.52881 19686.3
1576.5585 38990
1576.5882 19748.5
1576.61789 2894.83
1576.64759 563.901
1576.67729 535.012
1576.70698 1940.95
1576.73668 12102
1576.76638 23713.4
1576.79608 12098.8
1576.82578 1937.55
1576.85548 527.97
1576.88518 462.141
1576.91488 419.639
1576.94458 402.529
1576.97428 436.036
1577.00399 471.401
1577.03369 485.303
1577.06339 488.812
1577.0931 489.85
1577.1228 490.278
1577.15251 490.401
1577.18222 490.15
1577.21192 488.885
1577.24163 486.498
1577.27134 482.595
1577.30105 464.998
1577.33076 421.023
1577.36047 396.461
1577.39018 608.145
1577.41989 2933.3
1577.4496 13391.1
1577.47931 22888.1
1577.50902 11263.2
1577.53874 1824.41
1577.56845 532.93
1577.59816 491.612
1577.62788 490.769
1577.65759 489.501
1577.68731 486.249
1577.71703 475.802
1577.74674 443.494
1577.77646 395.852
1577.80618 396.447
1577.8359 448.287
1577.86562 555.283
1577.89534 2916.01
1577.92506 19918.7
1577.95478 39348.3
1577.9845 19921.1
1578.01422 2987.59
1578.04394 2702.59
1578.07367 17721.6
1578.10339 36187.8
1578.13311 20813.5
1578.16284 4250.12
1578.19256 693.608
1578.22229 456.517
1578.25202 2742.17
1578.28174 19054.4
1578.31147 37656.3
1578.3412 19074.8
1578.37093 2814.68
1578.40066 565.273
1578.43039 493.577
1578.46012 493.072
1578.48985 493.123
1578.51958 492.93
1578.54931 491.921
1578.57904 488.209
1578.60878 471.627
1578.63851 420.026
1578.66825 376.268
1578.69798 422.984
1578.72772 472.101
1578.75745 486.93
1578.78719 513.117
1578.81693 1220.76
1578.84666 6322.06
1578.8764 12151.6
1578.90614 6324.19
1578.93588 1223.88
1578.96562 517.303
1578.99536 493.743
1579.0251 490.701
1579.05484 477.661
1579.08458 429.73
1579.11433 380.807
1579.14407 420.98
1579.17381 471.663
1579.20356 489.149
1579.2333 493.521
1579.26305 561.096
1579.2928 2653.21
1579.32254 17764.6
1579.35229 35034
1579.38204 17765
1579.41179 2654.49
1579.44153 562.794
1579.47128 494.265
1579.50103 486.734
1579.53078 456.261
1579.56054 406.291
1579.59029 405.71
1579.62004 455.282
1579.64979 485.807
1579.67955 493.229
1579.7093 495.108
1579.73905 495.494
1579.76881 496.191
1579.79856 496.983
1579.82832 497.268
1579.85808 497.085
1579.88783 496.577
1579.91759 495.849
1579.94735 493.705
1579.97711 482.983
1580.00687 442.481
1580.03663 399.69
1580.06639 432.631
1580.09615 477.157
1580.12591 492.468
1580.15567 496.688
1580.18544 551.957
1580.2152 1623.31
1580.24497 9343.74
1580.27473 28296.6
1580.30449 46663.5
1580.33426 51584.9
1580.36403 40938.3
1580.39379 27815.5
1580.42356 21908.4
1580.45333 13969.6
1580.4831 11920.6
1580.51287 7704.82
1580.54264 5411.73
1580.57241 2874.78
1580.60218 2100.75
1580.63195 2989.05
1580.66172 1716.65
1580.69149 710.278
1580.72127 2500.14
1580.75104 18855.7
1580.78081 58276.1
1580.81059 89355.8
1580.84036 94321.7
1580.87014 86179.9
1580.89992 61080.4
1580.92969 32533.8
1580.95947 27524.1
1580.98925 19747.6
1581.01903 17054.5
1581.04881 12282.7
1581.07858 10372.6
1581.10837 5301.02
1581.13815 3415.53
1581.16793 5232.42
1581.19771 2996.25
1581.22749 1921.63
1581.25727 2763.77
1581.28706 1628.26
1581.31684 642.313
1581.34663 505.568
1581.37641 500.12
1581.4062 495.43
1581.43598 477.426
1581.46577 446.925
1581.49556 442.457
1581.52535 473.539
1581.55514 495.144
1581.58493 500.355
1581.61472 501.366
1581.64451 501.824
1581.6743 501.94
1581.70409 501.817
1581.73388 502.02
1581.76367 502.57
1581.79347 502.884
1581.82326 502.868
1581.85305 502.535
1581.88285 501.195
1581.91264 494.867
1581.94244 474.733
1581.97224 452.331
1582.00203 461.999
1582.03183 487.562
1582.06163 500.2
1582.09143 502.981
1582.12123 503.65
1582.15103 503.919
1582.18083 503.962
1582.21063 503.734
1582.24043 503.515
1582.27023 503.855
1582.30004 517.925
1582.32984 945.602
1582.35964 4034.87
1582.38945 7564.43
1582.41925 4027.35
1582.44906 918.619
1582.47886 472.955
1582.50867 474.282
1582.53848 495.143
1582.56829 502.824
1582.59809 504.458
1582.6279 504.998
1582.65771 505.289
1582.68752 505.447
1582.71733 505.451
1582.74714 505.355
1582.77696 505.366
1582.80677 505.49
1582.83658 505.567
1582.86639 505.367
1582.89621 505.076
1582.92602 570.16
1582.95584 3259.74
1582.98565 40195.1
1583.01547 220112
1583.04529 390660
1583.0751 189447
1583.10492 23930.4
1583.13474 1235.63
1583.16456 511.715
1583.19438 551.863
1583.2242 6326.31
1583.25402 187908
1583.28384 1.53719e+06
1583.31366 3.37359e+06
1583.34348 2.28649e+06
1583.37331 585979
1583.40313 56268.1
1583.43295 2111.49
1583.46278 510.119
1583.4926 484.348
1583.52243 480.617
1583.55226 494.689
1583.58208 504.805
1583.61191 507.196
1583.64174 507.769
1583.67157 508.021
1583.7014 508.177
1583.73123 508.524
1583.76106 539.439
1583.79089 1503.52
1583.82072 8469.51
1583.85055 16430.6
1583.88038 8469.46
1583.91022 1503.39
1583.94005 538.898
1583.96988 505.378
1583.99972 497.039
1584.02955 488.753
1584.05939 492.707
1584.08923 502.341
1584.11906 508.821
1584.1489 698.382
1584.17874 6614.58
1584.20858 50563.9
1584.23842 110312
1584.26826 74819.3
1584.2981 20144.2
1584.32794 7550.25
1584.35778 11033
1584.38762 5745.9
1584.41746 1164.36
1584.44731 530.28
1584.47715 509.583
1584.50699 507.167
1584.53684 499.866
1584.56668 493.732
1584.59653 500.556
1584.62638 507.861
1584.65622 510.05
1584.68607 531.043
1584.71592 3134.3
1584.74577 84464.7
1584.77562 672142
1584.80547 1.34377e+06
1584.83532 672142
1584.86517 84464.4
1584.89502 3133.9
1584.92487 530.973
1584.95473 510.821
1584.98458 511.12
1585.01443 511.015
1585.04429 509.37
1585.07414 504.104
1585.104 499.823
1585.13385 504.492
1585.16371 509.726
1585.19357 511.776
1585.22343 549.858
1585.25328 1725.41
1585.28314 10218.5
1585.313 19924.8
1585.34286 10218.7
1585.37272 1725.81
1585.40258 550.521
1585.43245 512.97
1585.46231 512.737
1585.49217 512.791
1585.52203 512.811
1585.5519 512.71
1585.58176 511.97
1585.61163 509.092
1585.64149 505.413
1585.67136 506.807
1585.70123 538.621
1585.73109 1410.35
1585.76096 7694.5
1585.79083 14875.9
1585.8207 7694.85
1585.85057 1411.37
1585.88044 541.859
1585.91031 514.105
1585.94018 513.958
1585.97005 514.023
1585.99992 514.086
1586.0298 514.144
1586.05967 514.19
1586.08955 514.189
1586.11942 514.733
1586.14929 602.842
1586.17917 3382.61
1586.20905 23530.5
1586.23892 46906.4
1586.2688 24412.2
1586.29868 3850.18
1586.32856 661.212
1586.35844 516.971
1586.38832 514.905
1586.4182 515.019
1586.44808 515.125
1586.47796 515.252
1586.50784 515.36
1586.53772 515.446
1586.56761 515.521
1586.59749 515.588
1586.62737 515.642
1586.65726 515.935
1586.68714 551.482
1586.71703 1667.61
1586.74692 9738.35
1586.7768 18963.9
1586.80669 9746.52
1586.83658 2510.45
1586.86647 27496.4
1586.89636 216334
1586.92625 434241
1586.95614 221561
1586.98603 30237.9
1587.01592 1706.72
1587.04581 534.08
1587.07571 516.67
1587.1056 516.23
1587.13549 515.255
1587.16539 542.21
1587.19528 1434.89
1587.22518 7886.88
1587.25507 15259.7
1587.28497 7887.45
1587.31487 1435.98
1587.34476 543.615
1587.37466 516.331
1587.40456 517.032
1587.43446 517.46
1587.46436 517.644
1587.49426 517.753
1587.52416 517.854
1587.55406 517.959
1587.58397 518.052
1587.61387 518.123
1587.64377 518.172
1587.67368 518.206
1587.70358 518.22
1587.73349 518.235
1587.76339 518.334
1587.7933 518.464
1587.8232 518.488
1587.85311 518.124
1587.88302 517.348
1587.91293 517.199
1587.94284 518.105
1587.97275 518.816
1588.00266 519.06
1588.03257 519.168
1588.06248 519.244
1588.09239 519.295
1588.1223 519.52
1588.15222 549.201
1588.18213 1480.75
1588.21204 8213.06
1588.24196 15907.2
1588.27187 8213.58
1588.30179 1481.56
1588.33171 549.947
1588.36162 520.195
1588.39154 520.014
1588.42146 519.931
1588.45138 519.432
1588.4813 518.959
1588.51122 519.528
1588.54114 520.179
1588.57106 520.382
1588.60098 520.509
1588.6309 544.864
1588.66082 1310.27
1588.69075 6841.11
1588.72067 13166.3
1588.75059 6852.58
1588.78052 1316.94
1588.81044 546.56
1588.84037 521.426
1588.8703 521.483
1588.90022 546.792
1588.93015 1339.91
1588.96008 7216.55
1588.99001 15089.4
1589.01994 10160.9
1589.04987 2903.83
1589.0798 742.769
1589.10973 527.751
1589.13966 521.743
1589.16959 521.902
1589.19952 522.062
1589.22946 522.166
1589.25939 522.248
1589.28932 522.323
1589.31926 522.392
1589.3492 522.455
1589.37913 522.5
1589.40907 522.501
1589.43901 522.517
1589.46894 522.646
1589.49888 522.787
1589.52882 522.94
1589.55876 531.573
1589.5887 801.464
1589.61864 2864.74
1589.64858 8916.89
1589.67852 37735.2
1589.70846 98081.3
1589.73841 105330
1589.76835 44825.4
1589.7983 7384.16
1589.82824 952.409
1589.85818 534.715
1589.88813 523.895
1589.91808 523.871
1589.94802 523.941
1589.97797 524.008
1590.00792 524.072
1590.03787 524.118
1590.06782 524.1
1590.09777 524.079
1590.12772 542.104
1590.15767 1111.97
1590.18762 5229.95
1590.21757 9935.73
1590.24752 5228.6
1590.27747 1111.07
1590.30743 542.301
1590.33738 524.735
1590.36734 524.867
1590.39729 525.006
1590.42725 525.108
1590.4572 525.198
1590.48716 525.281
1590.51712 525.359
1590.54708 525.426
1590.57704 525.459
1590.60699 525.471
1590.63695 525.549
1590.66691 525.688
1590.69688 525.803
1590.72684 525.886
1590.7568 525.958
1590.78676 526.02
1590.81672 526.049
1590.84669 526.012
1590.87665 525.899
1590.90662 525.812
1590.93658 525.952
1590.96655 526.264
1590.99651 526.49
1591.02648 526.608
1591.05645 526.691
1591.08642 526.746
1591.11639 526.896
1591.14636 541.31
1591.17633 981.605
1591.2063 4147.25
1591.23627 7759
1591.26624 4142.06
1591.29621 979.093
1591.32618 541.481
1591.35616 527.675
1591.38613 542.317
1591.41611 1000.95
1591.44608 4314.54
1591.47606 8101.48
1591.50603 4314.67
1591.53601 1001.21
1591.56599 542.699
1591.59596 530.227
1591.62594 618.543
1591.65592 1850
1591.6859 7931.32
1591.71588 13746.3
1591.74586 6938.64
1591.77584 1323.37
1591.80582 553.233
1591.83581 528.734
1591.86579 528.571
1591.89577 528.616
1591.92576 528.745
1591.95574 528.889
1591.98573 528.997
1592.01571 529.081
1592.0457 529.158
1592.07569 529.231
1592.10567 529.301
1592.13566 529.362
1592.16565 529.409
1592.19564 529.444
1592.22563 529.462
1592.25562 529.383
1592.28561 529.295
1592.3156 529.42
1592.34559 529.647
1592.37558 529.875
1592.40558 549.991
1592.43557 1187.63
1592.46557 5801.46
1592.49556 11076.1
1592.52556 5803.2
1592.55555 1189.14
1592.58555 550.869
1592.61554 530.697
1592.64554 538.856
1592.67554 795.151
1592.70554 2646.49
1592.73554 4762.29
1592.76554 2646.64
1592.79554 795.451
1592.82554 539.288
1592.85554 531.05
1592.88554 530.954
1592.91555 531.101
1592.94555 531.302
1592.97555 531.437
1593.00556 531.529
1593.03556 531.613
1593.06557 531.717
1593.09557 534.896
1593.12558 656.12
1593.15559 2323.07
1593.18559 11114.3
1593.2156 24817.1
1593.24561 23052.4
1593.27562 8665.38
1593.30563 1452.22
1593.33564 560.33
1593.36565 532.552
1593.39566 532.258
1593.42568 532.254
1593.45569 532.448
1593.4857 532.662
1593.51572 532.794
1593.54573 532.883
1593.57575 532.958
1593.60576 533.031
1593.63578 533.109
1593.6658 533.181
1593.69581 533.233
1593.72583 533.27
1593.75585 533.338
1593.78587 533.446
1593.81589 533.546
1593.84591 533.624
1593.87593 533.696
1593.90595 533.771
1593.93597 533.845
1593.96599 533.913
1593.99602 533.968
1594.02604 533.989
1594.05607 533.948
1594.08609 533.889
1594.11611 534.001
1594.14614 538.493
1594.17617 674.217
1594.20619 1654.59
1594.23622 2774.66
1594.26625 1652.72
1594.29628 671.401
1594.32631 537.146
1594.35634 534.234
1594.38637 534.702
1594.4164 534.83
1594.44643 534.734
1594.47646 534.164
1594.50649 533.487
1594.53653 533.905
1594.56656 534.637
1594.5966 534.894
1594.62663 538.855
1594.65667 659.887
1594.6867 1532.62
1594.71674 2529.84
1594.74678 1532.87
1594.77681 660.511
1594.80685 539.85
1594.83689 536.018
1594.86693 535.965
1594.89697 535.959
1594.92701 535.916
1594.95705 535.761
1594.98709 535.806
1595.01714 536.085
1595.04718 536.246
1595.07722 536.393
1595.10727 536.619
1595.13731 536.781
1595.16736 536.84
1595.1974 536.794
1595.22745 536.777
1595.25749 536.975
1595.28754 537.166
1595.31759 537.381
1595.34764 548.877
1595.37769 883.15
1595.40774 3255.81
1595.43779 5950.3
1595.46784 3241
1595.49789 875.46
1595.52794 548.149
1595.55799 537.724
1595.58805 537.781
1595.6181 537.932
1595.64815 538.014
1595.67821 538.009
1595.70826 538.028
1595.73832 538.145
1595.76838 538.198
1595.79843 538.201
1595.82849 538.225
1595.85855 538.273
1595.88861 538.501
1595.91867 538.695
1595.94873 538.748
1595.97879 538.626
1596.00885 538.434
1596.03891 538.565
1596.06897 538.868
1596.09903 538.973
1596.1291 538.715
1596.15916 537.929
1596.18922 537.071
1596.21929 537.045
1596.24935 537.579
1596.27942 538.253
1596.30949 538.889
1596.33955 539.227
1596.36962 539.488
1596.39969 539.694
1596.42976 539.609
1596.45983 539.312
1596.4899 539.31
1596.51997 539.657
1596.55004 539.958
1596.58011 539.949
1596.61018 539.992
1596.64026 552.714
1596.67033 688.19
1596.7004 1160.43
1596.73048 1495.59
1596.76055 982.41
1596.79063 594.822
1596.82071 542.416
1596.85078 540.666
1596.88086 540.744
1596.91094 540.901
1596.94102 540.669
1596.9711 540.127
1597.00117 539.874
1597.03125 539.941
1597.06134 540.672
1597.09142 541.256
1597.1215 547.562
1597.15158 1344.25
1597.18166 26853.1
1597.21175 230444
1597.24183 615535
1597.27192 618411
1597.302 232967
1597.33209 27373
1597.36217 2723.27
1597.39226 3442.19
1597.42235 3261.3
1597.45244 3426.3
1597.48253 1903.11
1597.51261 709.001
1597.5427 545.092
1597.57279 541.446
1597.60289 542.431
1597.63298 542.749
1597.66307 542.671
1597.69316 541.787
1597.72326 540.478
1597.75335 540.51
1597.78344 540.894
1597.81354 541.437
1597.84363 542.411
1597.87373 542.549
1597.90383 541.085
1597.93392 539.835
1597.96402 541.498
1597.99412 543.075
1598.02422 543.143
1598.05432 542.21
1598.08442 540.694
1598.11452 538.936
1598.14462 538.717
1598.17472 541.274
1598.20482 543.289
1598.23493 543.712
1598.26503 551.14
1598.29513 794.355
1598.32524 2562.03
1598.35534 4617.59
1598.38545 2649.13
1598.41556 841.107
1598.44566 557.804
1598.47577 544.635
1598.50588 543.557
1598.53599 539.69
1598.56609 534.665
1598.5962 536.474
1598.62631 541.38
1598.65643 542.817
1598.68654 542.002
1598.71665 542.096
1598.74676 541.012
1598.77687 535.721
1598.80699 530.871
1598.8371 535.511
1598.86722 542.251
1598.89733 544.889
1598.92745 545.168
1598.95756 544.018
1598.98768 539.924
1599.0178 531.536
1599.04792 526.092
1599.07804 533.892
1599.10816 543.375
1599.13828 547.116
1599.1684 548.077
1599.19852 548.117
1599.22864 545.677
1599.25876 534.73
1599.28888 521.607
1599.31901 528.589
1599.34913 542.828
1599.37925 549.648
1599.40938 551.527
1599.4395 551.968
1599.46963 550.749
1599.49976 542.547
1599.52988 525.382
1599.56001 520.618
1599.59014 538.388
1599.62027 550.828
1599.6504 553.013
1599.68053 553.735
1599.71066 554.905
1599.74079 552.832
1599.77092 537.697
1599.80106 515.411
1599.83119 521.657
1599.86132 544.38
1599.89146 556.089
1599.92159 558.865
1599.95173 559.213
1599.98186 557.98
1600.012 554.012
1600.04213 539.6
1600.07227 514.033
1600.10241 511.831
1600.13255 540.192
1600.16269 558.652
1600.19283 562.939
1600.22297 563.959
1600.25311 563.903
1600.28325 560.649
1600.31339 544.056
1600.34353 511.292
1600.37368 501.465
1600.40382 533.329
1600.43397 558.86
1600.46411 566.21
1600.49426 567.965
1600.5244 568.337
1600.55455 567.123
1600.5847 559.015
1600.61484 529.215
1600.64499 493.734
1600.67514 508.456
1600.70529 546.291
1600.73544 565.383
1600.76559 570.67
1600.79574 572.22
1600.82589 572.43
1600.85604 570.505
1600.8862 558.553
1600.91635 515.864
1600.9465 476.24
1600.97666 515.946
1601.00681 559.775
1601.03697 572.729
1601.06713 575.186
1601.09728 575.946
1601.12744 576.381
1601.1576 574.21
1601.18776 559.291
1601.21792 513.39
1601.24808 473.43
1601.27824 509.312
1601.3084 556.925
1601.33856 574.346
1601.36872 578.543
1601.39888 580.403
1601.42904 580.986
1601.45921 579.06
1601.48937 568.525
1601.51954 529.79
1601.5497 477.687
1601.57987 488.607
1601.61003 550.048
1601.6402 629.982
1601.67037 728.275
1601.70054 730.354
1601.73071 640.775
1601.76088 592.16
1601.79104 581.879
1601.82122 561.409
1601.85139 500.717
1601.88156 453.933
1601.91173 513.583
1601.9419 570.837
1601.97208 586.35
1602.00225 589.849
1602.03242 590.905
1602.0626 590.579
1602.09277 587.996
1602.12295 579.566
1602.15313 548.511
1602.1833 486.707
1602.21348 465.103
1602.24366 551.321
1602.27384 783.462
1602.30402 1011.18
1602.3342 841.716
1602.36438 842.417
1602.39456 1024.45
1602.42474 808.157
1602.45492 614.054
1602.48511 554.483
1602.51529 488.043
1602.54548 467.153
1602.57566 527.707
1602.60584 580.314
1602.63603 596.857
1602.66622 600.671
1602.6964 602.048
1602.72659 602.506
1602.75678 601.868
1602.78697 597.518
1602.81716 575.082
1602.84735 512.195
1602.87754 461.663
1602.90773 510.652
1602.93792 595.576
1602.96811 3303.75
1602.9983 89143.2
1603.0285 772750
1603.05869 2.0561e+06
1603.08888 2.05471e+06
1603.11908 778423
1603.14928 93972.4
1603.17947 3931.38
1603.20967 525.549
1603.23986 487.403
1603.27006 552.201
1603.30026 594.876
1603.33046 608.273
1603.36066 612.196
1603.39086 613.624
1603.42106 614.146
1603.45126 613.87
1603.48146 611.429
1603.51166 598.705
1603.54187 555.203
1603.57207 494.385
1603.60227 497.494
1603.63248 564.148
1603.66268 605.625
1603.69289 615.001
1603.7231 616.783
1603.7533 618.671
1603.78351 620.033
1603.81372 620.041
1603.84393 617.971
1603.87414 606.431
1603.90434 558.414
1603.93456 496.343
1603.96477 520.557
1603.99498 583.887
1604.02519 616.208
1604.0554 667.447
1604.08561 983.995
1604.11583 1346.15
1604.14604 990.308
1604.17626 673.003
1604.20647 627.745
1604.23669 660.641
1604.2669 926.232
1604.29712 1210.47
1604.32734 862.272
1604.35756 618.597
1604.38778 617.594
1604.418 628.19
1604.44822 631.305
1604.47844 632.591
1604.50866 633.247
1604.53888 633.363
1604.5691 632.358
1604.59932 629.601
1604.62955 620.58
1604.65977 582.754
1604.68999 539.474
1604.72022 570.624
1604.75045 616.044
1604.78067 633.094
1604.8109 637.342
1604.84113 638.882
1604.87135 639.764
1604.90158 640.345
1604.93181 640.673
1604.96204 640.536
1604.99227 638.559
1605.0225 628.069
1605.05273 600.52
1605.08296 580.737
1605.1132 603.815
1605.14343 632.028
1605.17366 642.568
1605.2039 645.134
1605.23413 646.172
1605.26437 646.898
1605.2946 647.486
1605.32484 647.96
1605.35508 648.253
1605.38531 647.774
1605.41555 643.675
1605.44579 633.96
1605.47603 628.774
1605.50627 636.487
1605.53651 644.88
1605.56675 649.33
1605.59699 651.778
1605.62723 655.293
1605.65748 727.588
1605.68772 1245.45
1605.71796 1837.16
1605.74821 1246.47
1605.77845 729.651
1605.8087 658.495
1605.83894 656.563
1605.86919 656.927
1605.89944 659.658
1605.92969 731.327
1605.95993 1246.89
1605.99018 1834.49
1606.02043 1238.22
1606.05068 702.903
1606.08093 614.873
1606.11118 633.241
1606.14144 653.714
1606.17169 659.684
1606.20194 661.414
1606.2322 662.255
1606.26245 662.839
1606.2927 663.287
1606.32296 663.519
1606.35321 663.404
1606.38347 662.47
1606.41373 656.708
1606.44399 630.008
1606.47424 590.62
1606.5045 597.616
1606.53476 636.444
1606.56502 659.317
1606.59528 665.523
1606.62554 667.148
1606.6558 668.028
1606.68607 668.817
1606.71633 669.434
1606.74659 669.722
1606.77686 669.457
1606.80712 667.588
1606.83738 657.854
1606.86765 621.192
1606.89792 572.117
1606.92818 583.011
1606.95845 633.474
1606.98872 661.818
1607.01899 670.25
1607.04925 673.442
1607.07952 674.781
1607.10979 675.283
1607.14006 675.292
1607.17034 675.175
1607.20061 675.13
1607.23088 673.6
1607.26115 663.747
1607.29143 626.8
1607.3217 573.807
1607.35197 578.121
1607.38225 638.273
1607.41253 680.068
1607.4428 682.681
1607.47308 678.475
1607.50336 678.731
1607.53363 680.8
1607.56391 682.203
1607.59419 682.36
1607.62447 681.763
1607.65475 680.459
1607.68503 674.07
1607.71531 644.541
1607.7456 578.363
1607.77588 544.585
1607.80616 605.923
1607.83644 670.5
1607.86673 1647.67
1607.89701 32427.9
1607.9273 280034
1607.95759 762597
1607.98787 788076
1608.01816 302352
1608.04845 35568.8
1608.07873 1779.98
1608.10902 696.684
1608.13931 671.838
1608.1696 623.822
1608.19989 554.439
1608.23018 558.52
1608.26048 633.054
1608.29077 678.85
1608.32106 689.238
1608.35135 691.015
1608.38165 692.413
1608.41194 693.157
1608.44224 693.042
1608.47253 693.885
1608.50283 694.769
1608.53313 694.278
1608.56342 691.586
1608.59372 676.043
1608.62402 613.247
1608.65432 538.797
1608.68462 577.535
1608.71492 653.927
1608.74522 688.677
1608.77552 698.104
1608.80582 701.174
1608.83613 702.616
1608.86643 703.462
1608.89673 703.893
1608.92704 703.552
1608.95734 701.466
1608.98765 698.306
1609.01795 695.872
1609.04826 683.572
1609.07857 624.538
1609.10887 548.405
1609.13918 582.309
1609.16949 660.37
1609.1998 696.773
1609.23011 705.411
1609.26042 706.434
1609.29073 704.638
1609.32104 704.959
1609.35136 708.692
1609.38167 711.147
1609.41198 711.707
1609.4423 711.452
1609.47261 709.746
1609.50293 701.673
1609.53324 665.782
1609.56356 589.161
1609.59387 557.167
1609.62419 631.296
1609.65451 691.787
1609.68483 709.615
1609.71515 714.889
1609.74547 716.953
1609.77579 718.146
1609.80611 718.934
1609.83643 719.269
1609.86675 718.611
1609.89707 716.558
1609.9274 714.222
1609.95772 710.745
1609.98804 695.828
1610.01837 636.399
1610.0487 568.079
1610.07902 613.913
1610.10935 686.127
1610.13967 714.362
1610.17 720.996
1610.20033 722.1
1610.23066 721.232
1610.26099 721.989
1610.29132 722.904
1610.32165 722.783
1610.35198 724.536
1610.38231 726.387
1610.41264 725.945
1610.44298 721.092
1610.47331 699.903
1610.50364 637.004
1610.53398 582.986
1610.56431 636.595
1610.59465 699.542
1610.62499 721.322
1610.65532 725.836
1610.68566 728.055
1610.716 731.203
1610.74634 733.719
1610.77667 734.968
1610.80701 735.494
1610.83735 735.427
1610.8677 733.768
1610.89804 730.771
1610.92838 727.718
1610.95872 710.574
1610.98906 655.374
1611.01941 608.183
1611.04975 651.006
1611.0801 709.993
1611.11044 733.225
1611.14079 738.86
1611.17113 740.613
1611.20148 740.797
1611.23183 739.216
1611.26218 738.184
1611.29253 740.511
1611.32288 742.546
1611.35323 741.567
1611.38358 739.274
1611.41393 738.687
1611.44428 731.015
1611.47463 696.843
1611.50498 646.136
1611.53534 647.197
1611.56569 701.302
1611.59605 733.923
1611.6264 742.581
1611.65676 746.799
1611.68711 748.64
1611.71747 748.258
1611.74783 747.179
1611.77818 747.951
1611.80854 750.477
1611.8389 751.927
1611.86926 752.116
1611.89962 751.417
1611.92998 746.543
1611.96034 724.895
1611.99071 681.021
1612.02107 659.964
1612.05143 695.324
1612.0818 735.471
1612.11216 749.728
1612.14252 752.381
1612.17289 755.676
1612.20326 758.204
1612.23362 759.24
1612.26399 759.66
1612.29436 759.119
1612.32472 757.745
1612.35509 757.934
1612.38546 759.723
1612.41583 760.091
1612.4462 755.755
1612.47657 733.529
1612.50695 692.065
1612.53732 682.746
1612.56769 720.843
1612.59806 752.634
1612.62844 762.813
1612.65881 764.874
1612.68919 765.513
1612.71956 877.603
1612.74994 6444
1612.78032 112309
1612.81069 755446
1612.84107 1.52529e+06
1612.87145 1.43483e+06
1612.90183 1.53984e+06
1612.93221 728773
1612.96259 91439.3
1612.99297 3588.68
1613.02335 743.21
1613.05373 695.463
1613.08412 730.454
1613.1145 762.157
1613.14488 771.061
1613.17527 773.792
1613.20565 774.974
1613.23604 775.56
1613.26642 775.483
1613.29681 775.189
1613.3272 775.397
1613.35758 774.689
1613.38797 773.972
1613.41836 775.329
1613.44875 777.077
1613.47914 776.795
1613.50953 770.403
1613.53992 746.779
1613.57031 722.306
1613.60071 739.792
1613.6311 767.911
1613.66149 779.596
1613.69189 782.551
1613.72228 783.69
1613.75268 784.542
1613.78307 785.859
1613.81347 787.389
1613.84387 787.561
1613.87426 787.076
1613.90466 786.29
1613.93506 786.602
1613.96546 787.419
1613.99586 787.603
1614.02626 785.59
1614.05666 774.417
1614.08706 752.84
1614.11746 747.402
1614.14787 767.94
1614.17827 784.822
1614.20867 790.095
1614.23908 791.366
1614.26948 791.818
1614.29989 792.608
1614.33029 795.01
1614.3607 798.872
1614.39111 799.714
1614.42151 797.662
1614.45192 799.019
1614.48233 801.615
1614.51274 798.124
1614.54315 795.807
1614.57356 794.262
1614.60397 783.8
1614.63438 766.066
1614.6648 766.684
1614.69521 783.502
1614.72562 794.376
1614.75604 798.596
1614.78645 800.488
1614.81687 801.326
1614.84728 801.925
1614.8777 802.323
1614.90812 801.86
1614.93853 801.404
1614.96895 802.895
1614.99937 804.378
1615.02979 805.1
1615.06021 805.492
1615.09063 805.213
1615.12105 803.146
1615.15147 797.232
1615.18189 785.394
1615.21232 779.311
1615.24274 793.659
1615.27316 805.426
1615.30359 807.931
1615.33401 807.378
1615.36444 806.973
1615.39486 809.03
1615.42529 811.118
1615.45572 811.958
1615.48614 812.171
1615.51657 811.876
1615.547 810.767
1615.57743 810.429
1615.60786 812.437
1615.63829 814.375
1615.66872 814.79
1615.69916 812.501
1615.72959 804.634
1615.76002 795.908
1615.79045 798.796
1615.82089 809.086
1615.85132 815.852
1615.88176 818.413
1615.91219 819.371
1615.94263 819.484
1615.97307 818.37
1616.0035 817.135
1616.03394 818.513
1616.06438 821.019
1616.09482 822.437
1616.12526 823.006
1616.1557 823.193
1616.18614 822.798
1616.21658 821.34
1616.24703 819.84
1616.27747 818.899
1616.30791 814.004
1616.33836 810.601
1616.3688 818.488
1616.39924 824.074
1616.42969 823.744
1616.46014 823.904
1616.49058 826.155
1616.52103 827.995
1616.55148 828.716
1616.58193 828.343
1616.61238 827.341
1616.64282 826.796
1616.67327 826.63
1616.70373 827.413
1616.73418 830.057
1616.76463 832.404
1616.79508 833.221
1616.82553 832.25
1616.85599 827.564
1616.88644 820.458
1616.9169 820.481
1616.94735 828.628
1616.97781 834.592
1617.00826 836.768
1617.03872 837.723
1617.06918 838.129
1617.09964 837.596
1617.1301 835.917
1617.16056 835.103
1617.19101 837.124
1617.22148 839.678
1617.25194 840.84
1617.2824 840.992
1617.31286 839.892
1617.34332 838.448
1617.37379 839.544
1617.40425 842.089
1617.43471 842.54
1617.46518 839.607
1617.49565 837.462
1617.52611 841.514
1617.55658 844.843
1617.58705 844.5
1617.61751 842.793
1617.64798 843.568
1617.67845 846.496
1617.70892 848.397
1617.73939 848.805
1617.76986 847.812
1617.80033 846.207
1617.8308 846.916
1617.86128 849.703
1617.89175 851.403
1617.92222 851.464
1617.9527 851.025
1617.98317 851.697
1618.01365 852.354
1618.04412 850.821
1618.0746 847.327
1618.10508 846.676
1618.13556 850.792
1618.16603 854.716
1618.19651 856.181
1618.22699 855.731
1618.25747 853.879
1618.28795 853.535
1618.31843 856.406
1618.34892 858.754
1618.3794 859.623
1618.40988 859.958
1618.44036 860.315
1618.47085 861.046
1618.50133 861.585
1618.53182 861.326
1618.5623 859.87
1618.59279 858.847
1618.62328 860.008
1618.65376 859.842
1618.68425 858.085
1618.71474 859.102
1618.74523 860.316
1618.77572 861.824
1618.80621 862.537
1618.8367 862.569
1618.86719 863.749
1618.89768 865.099
1618.92818 866.895
1618.95867 868.556
1618.98916 869.332
1619.01966 869.185
1619.05015 867.841
1619.08065 866.798
1619.11114 868.65
1619.14164 870.895
1619.17214 871.291
1619.20264 870.186
1619.23313 869.643
1619.26363 870.803
1619.29413 871.9
1619.32463 879.526
1619.35513 1654.9
1619.38563 26409.7
1619.41614 223732
1619.44664 595285
1619.47714 595474
1619.50765 223899
1619.53815 26433.7
1619.56865 1656.67
1619.59916 888.362
1619.62966 924.873
1619.66017 971.87
1619.69068 924.752
1619.72119 884.328
1619.75169 880.701
1619.7822 882.202
1619.81271 883.02
1619.84322 883.461
1619.87373 883.492
1619.90424 883.315
1619.93475 883.865
1619.96527 885.074
1619.99578 885.935
1620.02629 886.21
1620.05681 885.433
1620.08732 884.396
1620.11784 885.657
1620.14835 886.999
1620.17887 886.779
1620.20938 886.909
1620.2399 888.524
1620.27042 890.099
1620.30094 890.974
1620.33146 891.534
1620.36198 891.938
1620.3925 892.145
1620.42302 892.386
1620.45354 892.889
1620.48406 892.933
1620.51458 892.329
1620.54511 892.521
1620.57563 893.034
1620.60615 892.93
1620.63668 893.576
1620.6672 894.143
1620.69773 894.314
1620.72826 895.444
1620.75878 897.216
1620.78931 907.293
1620.81984 971.014
1620.85037 1043.35
1620.8809 972.179
1620.91143 909.942
1620.94196 901.731
1620.97249 901.792
1621.00302 901.583
1621.03355 901.263
1621.06409 902.319
1621.09462 911.246
1621.12515 973.328
1621.15569 1044.74
1621.18622 973.448
1621.21676 911.844
1621.2473 904.932
1621.27783 905.639
1621.30837 905.786
1621.33891 906.443
1621.36945 907.65
1621.39999 908.522
1621.43052 908.662
1621.46107 908.415
1621.49161 908.574
1621.52215 908.944
1621.55269 909.593
1621.58323 910.545
1621.61378 911.341
1621.64432 911.174
1621.67486 910.639
1621.70541 911.067
1621.73595 912.559
1621.7665 914.037
1621.79705 914.6
1621.82759 914.581
1621.85814 915.054
1621.88869 916.154
1621.91924 917.033
1621.94979 917.458
1621.98034 917.693
1622.01089 918.072
1622.04144 920.336
1622.07199 930.37
1622.10254 941.409
1622.1331 940.017
1622.16365 939.799
1622.19421 928.79
1622.22476 920.884
1622.25532 921.562
1622.28587 923.75
1622.31643 924.637
1622.34698 926.032
1622.37754 930.704
1622.4081 936.755
1622.43866 935.679
1622.46922 937.593
1622.49978 932.222
1622.53034 927.651
1622.5609 927.43
1622.59146 928.01
1622.62202 928.617
1622.65259 929.127
1622.68315 929.487
1622.71371 929.424
1622.74428 928.947
1622.77484 929.081
1622.80541 929.916
1622.83597 930.535
1622.86654 939.813
1622.89711 1006.86
1622.92768 1100.84
1622.95825 1111.88
1622.98881 1121.44
1623.01938 1020.07
1623.04995 945.66
1623.08052 936.045
1623.1111 936.315
1623.14167 936.648
1623.17224 936.904
1623.20281 937.391
1623.23339 937.759
1623.26396 937.985
1623.29454 938.127
1623.32511 939.276
1623.35569 963.97
1623.38626 2830.34
1623.41684 59723.6
1623.44742 471589
1623.478 952291
1623.50858 525448
1623.53916 341223
1623.56974 722585
1623.60032 719275
1623.6309 270295
1623.66148 31807.4
1623.69206 1887.14
1623.72264 952.576
1623.75323 945.281
1623.78381 944.24
1623.8144 944.086
1623.84498 944.803
1623.87557 944.89
1623.90615 944.98
1623.93674 946.017
1623.96733 948.255
1623.99792 949.975
1624.02851 950.072
1624.05909 949.569
1624.08968 950.073
1624.12027 950.667
1624.15087 951.708
1624.18146 953.179
1624.21205 953.919
1624.24264 953.285
1624.27324 952.325
1624.30383 953.67
1624.33442 955.52
1624.36502 956.444
1624.39561 957.018
1624.42621 957.534
1624.45681 958.017
1624.4874 960.951
1624.518 1034.26
1624.5486 1562.06
1624.5792 2234.95
1624.6098 2159.47
1624.6404 2233.6
1624.671 1561.93
1624.7016 1036.31
1624.7322 964.753
1624.76281 962.931
1624.79341 963.239
1624.82401 963.945
1624.85462 964.684
1624.88522 965.207
1624.91583 965.639
1624.94643 966.151
1624.97704 966.701
1625.00765 967.142
1625.03825 967.503
1625.06886 967.847
1625.09947 968.023
1625.13008 968.447
1625.16069 970.748
1625.1913 1015.57
1625.22191 1334.93
1625.25252 1741.27
1625.28314 1693.69
1625.31375 1736.84
1625.34436 1332.69
1625.37498 1016.73
1625.40559 974.278
1625.43621 973.791
1625.46682 974.117
1625.49744 974.039
1625.52806 974.251
1625.55867 974.755
1625.58929 974.947
1625.61991 975.165
1625.65053 976.121
1625.68115 976.868
1625.71177 977.096
1625.74239 977.607
1625.77301 978.043
1625.80363 979.032
1625.83426 979.981
1625.86488 979.44
1625.8955 977.097
1625.92613 975.21
1625.95675 975.506
1625.98738 978.082
1626.018 980.468
1626.04863 981.102
1626.07926 981.186
1626.10989 981.622
1626.14052 982.139
1626.17114 983.418
1626.20177 984.704
1626.2324 985.41
1626.26303 986.102
1626.29367 987.202
1626.3243 988.255
1626.35493 989.002
1626.38556 989.563
1626.4162 990.05
1626.44683 990.474
1626.47747 990.616
1626.5081 989.706
1626.53874 988.264
1626.56937 989.127
1626.60001 991.67
1626.63065 993.264
1626.66129 993.918
1626.69193 994.38
1626.72257 994.938
1626.75321 995.479
1626.78385 995.89
1626.81449 996.268
1626.84513 996.82
1626.87577 997.545
1626.90641 1011.16
1626.93706 1421.21
1626.9677 4394.35
1626.99835 8186.84
1627.02899 7763.74
1627.05964 8185.68
1627.09028 4394.33
1627.12093 1421.97
1627.15158 1010.04
1627.18223 994.574
1627.21287 995.855
1627.24352 998.004
1627.27417 999.508
1627.30482 1000.05
1627.33547 1000.28
1627.36613 1002.58
1627.39678 1004.85
1627.42743 1005.94
1627.45808 1006.48
1627.48874 1006.35
1627.51939 1005.46
1627.55005 1005.38
1627.5807 1007.17
1627.61136 1008.75
1627.64202 1009.32
1627.67267 1009.7
1627.70333 1010.36
1627.73399 1010.91
1627.76465 1011.3
1627.79531 1011.61
1627.82597 1012.35
1627.85663 1020.71
1627.88729 1257.1
1627.91795 2968.58
1627.94861 5152.54
1627.97928 4910.06
1628.00994 5149.66
1628.04061 2961.62
1628.07127 1245.03
1628.10194 1007.57
1628.1326 1002.11
1628.16327 1004.29
1628.19394 1005.98
1628.2246 1006.7
1628.25527 1006.52
1628.28594 1005.79
1628.31661 1005.25
1628.34728 1004.43
1628.37795 1004.44
1628.40862 1004.63
1628.43929 1004.48
1628.46997 1003.77
1628.50064 1001.93
1628.53131 999.401
1628.56199 997.556
1628.59266 996.472
1628.62334 995.879
1628.65401 994.286
1628.68469 991.744
1628.71536 990.943
1628.74604 993.537
1628.77672 995.507
1628.8074 995.719
1628.83808 995.221
1628.86876 994.322
1628.89944 993.602
1628.93012 993.217
1628.9608 992.586
1628.99148 991.332
1629.02217 989.774
1629.05285 989.174
1629.08353 989.289
1629.11422 989.016
1629.1449 988.295
1629.17559 987.216
1629.20627 986.053
1629.23696 985.366
1629.26765 984.026
1629.29834 981.31
1629.32902 979.146
1629.35971 978.831
1629.3904 978.765
1629.42109 979.21
1629.45178 979.966
1629.48248 979.949
1629.51317 979.088
1629.54386 978.107
1629.57455 977.695
1629.60525 977.293
1629.63594 976.508
1629.66664 975.039
1629.69733 973.326
1629.72803 973.033
1629.75872 973.286
1629.78942 972.971
1629.82012 972.252
1629.85082 971.265
1629.88152 970.18
1629.91222 969.36
1629.94292 968.626
1629.97362 968.107
1630.00432 967.197
1630.03502 965.602
1630.06572 965.071
1630.09643 1023.31
1630.12713 2836.88
1630.15783 15995.7
1630.18854 32780.3
1630.21924 30903.3
1630.24995 32769
1630.28066 15987.3
1630.31136 2830.99
1630.34207 1014.98
1630.37278 952.572
1630.40349 948.932
1630.4342 946.509
1630.46491 939.876
1630.49562 931.137
1630.52633 930.741
1630.55704 934.721
1630.58775 941.586
1630.61846 947.456
1630.64918 946.424
1630.67989 939.425
1630.71061 937.416
1630.74132 942.439
1630.77204 944.757
1630.80275 945.674
1630.83347 946.857
1630.86419 947.046
1630.8949 946.493
1630.92562 945.453
1630.95634 943.925
1630.98706 942.682
1631.01778 942.152
1631.0485 941.529
1631.07922 940.315
1631.10995 938.606
1631.14067 938.11
1631.17139 938.934
1631.20212 939.135
1631.23284 938.585
1631.26357 937.766
1631.29429 936.354
1631.32502 933.45
1631.35574 931.015
1631.38647 932.393
1631.4172 934.575
1631.44793 992.314
1631.47866 2178.45
1631.50939 10278.5
1631.54012 24981.5
1631.57085 24971.6
1631.60158 10401.4
1631.63231 15722.7
1631.66304 120580
1631.69378 317229
1631.72451 316540
1631.75524 125793
1631.78598 18846
1631.81671 1920.45
1631.84745 945.301
1631.87819 922.4
1631.90892 921.345
1631.93966 921.238
1631.9704 920.871
1632.00114 919.81
1632.03188 917.002
1632.06262 912.276
1632.09336 910.475
1632.1241 913.151
1632.15484 915.298
1632.18558 915.531
1632.21633 914.899
1632.24707 913.703
1632.27781 912.442
1632.30856 911.999
1632.3393 911.392
1632.37005 909.345
1632.4008 905.494
1632.43154 902.482
1632.46229 903.184
1632.49304 904.819
1632.52379 905.091
1632.55454 904.905
1632.58529 904.55
1632.61604 903.186
1632.64679 900.178
1632.67754 898.251
1632.70829 899.058
1632.73904 899.972
1632.7698 899.72
1632.80055 897.695
1632.83131 893.001
1632.86206 885.333
1632.89282 879.601
1632.92357 881.463
1632.95433 885.373
1632.98509 883.398
1633.01584 878.186
1633.0466 876.222
1633.07736 879.938
1633.10812 885.497
1633.13888 886.422
1633.16964 884.434
1633.2004 885.221
1633.23117 887.824
1633.26193 888.79
1633.29269 888.535
1633.32346 888.184
1633.35422 887.687
1633.38498 886.822
1633.41575 885.531
1633.44652 884.294
1633.47728 882.805
1633.50805 879.651
1633.53882 876.9
1633.56959 877.535
1633.60036 878.344
1633.63112 878.067
1633.66189 877.274
1633.69267 876.715
1633.72344 877.136
1633.75421 876.673
1633.78498 874.631
1633.81575 871.931
1633.84653 871.197
1633.8773 872.912
1633.90808 873.705
1633.93885 873.024
1633.96963 872.302
1634.0004 872.062
1634.03118 873.211
1634.06196 1072.35
1634.09274 7314.25
1634.12352 52701.8
1634.1543 111223
1634.18508 104897
1634.21586 109242
1634.24664 51645.7
1634.27742 7175.51
1634.3082 1060.1
1634.33898 864.071
1634.36977 861.836
1634.40055 860.486
1634.43134 858.544
1634.46212 856.649
1634.49291 856.921
1634.52369 858.119
1634.55448 858.766
1634.58527 858.371
1634.61606 857.496
1634.64684 856.91
1634.67763 856.423
1634.70842 855.818
1634.73921 855.095
1634.77 854.225
1634.8008 852.834
1634.83159 850.168
1634.86238 846.722
1634.89317 845.351
1634.92397 847.184
1634.95476 919.208
1634.98556 3783.08
1635.01635 44272.6
1635.04715 247117
1635.07795 442821
1635.10874 216407
1635.13954 56242.8
1635.17034 231773
1635.20114 461046
1635.23194 230940
1635.26274 29603.5
1635.29354 1738.95
1635.32434 845.112
1635.35514 830.149
1635.38595 802.51
1635.41675 765.874
1635.44755 766.797
1635.47836 792.318
1635.50916 819.452
1635.53997 831.389
1635.57077 832.863
1635.60158 833.462
1635.63239 837.653
1635.6632 841.991
1635.694 836.696
1635.72481 831.681
1635.75562 829.996
1635.78643 829.006
1635.81724 828.46
1635.84805 827.902
1635.87887 830.218
1635.90968 837.015
1635.94049 993.602
1635.97131 4610.65
1636.00212 30421.9
1636.03293 77864.9
1636.06375 77958.7
1636.09457 29861.4
1636.12538 4151.15
1636.1562 920.35
1636.18702 819.267
1636.21783 817.642
1636.24865 817.558
1636.27947 817.799
1636.31029 817.571
1636.34111 816.962
1636.37193 816.224
1636.40276 815.35
1636.43358 814.338
1636.4644 813.45
1636.49523 812.574
1636.52605 811.553
1636.55687 810.873
1636.5877 809.317
1636.61853 805.026
1636.64935 799.817
1636.68018 798.312
1636.71101 799.77
1636.74183 802.362
1636.77266 804.501
1636.80349 805.054
1636.83432 804.935
1636.86515 809.792
1636.89598 816.404
1636.92681 809.228
1636.95765 802.73
1636.98848 801.436
1637.01931 800.8
1637.05015 800.045
1637.08098 799.066
1637.11182 797.644
1637.14265 795.969
1637.17349 794.722
1637.20433 795.221
1637.23516 801.572
1637.266 808.397
1637.29684 800.963
1637.32768 794.126
1637.35852 791.926
1637.38936 789.437
1637.4202 787.197
1637.45104 787.355
1637.48188 787.931
1637.51273 786.54
1637.54357 784.345
1637.57441 782.141
1637.60526 771.527
1637.6361 744.585
1637.66695 716.441
1637.69779 707.554
1637.72864 718.663
1637.75949 749.453
1637.79034 762.41
1637.82118 750.984
1637.85203 746.786
1637.88288 762.113
1637.91373 773.572
1637.94458 776.741
1637.97543 777.255
1638.00629 776.742
1638.03714 775.643
1638.06799 774.604
1638.09885 774.25
1638.1297 773.65
1638.16056 772.169
1638.19141 769.383
1638.22227 766.929
1638.25312 768.086
1638.28398 769.644
1638.31484 769.702
1638.3457 769.112
1638.37656 768.309
1638.40741 767.246
1638.43827 766.067
1638.46914 765.159
1638.5 763.877
1638.53086 761.2
1638.56172 757.71
1638.59258 756.051
1638.62345 757.99
1638.65431 760.072
1638.68518 762.667
1638.71604 1036.42
1638.74691 9793.5
1638.77777 79602
1638.80864 222881
1638.83951 335601
1638.87038 344318
1638.90125 144109
1638.93212 17873.7
1638.96299 1275.95
1638.99386 753.893
1639.02473 750.791
1639.0556 750.071
1639.08647 747.727
1639.11734 745.765
1639.14822 746.459
1639.17909 747.749
1639.20997 747.37
1639.24084 745.055
1639.27172 740.951
1639.30259 737.501
1639.33347 738.786
1639.36435 742.053
1639.39523 742.892
1639.4261 741.463
1639.45698 738.912
1639.48786 735.387
1639.51874 731.408
1639.54962 731.274
1639.58051 734.612
1639.61139 735.648
1639.64227 730.848
1639.67315 725.114
1639.70404 728.085
1639.73492 730.072
1639.76581 729.808
1639.79669 731.682
1639.82758 732.992
1639.85847 732.826
1639.88935 732.165
1639.92024 731.303
1639.95113 729.972
1639.98202 727.054
1640.01291 721.078
1640.0438 715.996
1640.07469 718.743
1640.10558 723.639
1640.13647 725.001
1640.16737 724.062
1640.19826 721.587
1640.22915 711.951
1640.26005 683.327
1640.29094 647.189
1640.32184 635.953
1640.35273 629.893
1640.38363 626.267
1640.41453 663.353
1640.44543 696.337
1640.47633 707.187
1640.50722 710.341
1640.53812 712.539
1640.56902 714.344
1640.59992 714.771
1640.63083 714.326
1640.66173 713.62
1640.69263 712.688
1640.72353 710.622
1640.75444 703.567
1640.78534 694.01
1640.81625 695.879
1640.84715 703.561
1640.87806 707.245
1640.90896 707.588
1640.93987 706.923
1640.97078 705.87
1641.00169 704.83
1641.0326 704.057
1641.06351 703.147
1641.09442 701.628
1641.12533 696.879
1641.15624 686.951
1641.18715 682.409
1641.21806 690.398
1641.24898 697.131
1641.27989 698.515
1641.3108 698.21
1641.34172 699.676
1641.37263 965.745
1641.40355 9461.96
1641.43447 76006.7
1641.46538 192794
1641.4963 179696
1641.52722 64534.7
1641.55814 7850.64
1641.58906 894.2
1641.61998 687.47
1641.6509 688.981
1641.68182 688.787
1641.71274 687.799
1641.74366 687.127
1641.77459 686.833
1641.80551 686.358
1641.83643 685.542
1641.86736 684.037
1641.89828 679.406
1641.92921 669.089
1641.96014 661.937
1641.99106 668.46
1642.02199 676.884
1642.05292 679.683
1642.08385 679.697
1642.11478 679.123
1642.14571 678.416
1642.17664 677.605
1642.20757 676.681
1642.2385 675.512
1642.26943 673.027
1642.30036 666.52
1642.3313 655.478
1642.36223 651.425
1642.39317 661.757
1642.4241 669.311
1642.45504 670.512
1642.48597 670.124
1642.51691 669.429
1642.54785 668.668
1642.57879 667.927
1642.60972 667.076
1642.64066 665.897
1642.6716 663.142
1642.70254 653.941
1642.73349 641.254
1642.76443 642.238
1642.79537 650.213
1642.82631 648.067
1642.85726 614.694
1642.8882 551.652
1642.91914 521.984
1642.95009 552.633
1642.98103 611.81
1643.01198 645.609
1643.04293 653.403
1643.07387 652.597
1643.10482 644.752
1643.13577 633.872
1643.16672 636.396
1643.19767 646.199
1643.22862 650.757
1643.25957 650.558
1643.29052 648.139
1643.32147 645.774
1643.35243 646.157
1643.38338 647.561
1643.41433 647.782
1643.44529 646.972
1643.47624 644.774
1643.5072 638.276
1643.53816 628.239
1643.56911 626.744
1643.60007 635.823
1643.63103 641.345
1643.66199 641.809
1643.69294 641.006
1643.7239 640.079
1643.75486 639.405
1643.78583 638.71
1643.81679 637.637
1643.84775 636.791
1643.87871 635.628
1643.90967 630.834
1643.94064 621.34
1643.9716 618.009
1644.00257 626.288
1644.03353 631.879
1644.0645 640.357
1644.09547 1644.71
1644.12643 33390.9
1644.1574 274361
1644.18837 653576
1644.21934 636115
1644.25031 430653
1644.28128 155930
1644.31225 18524.7
1644.34322 1163.63
1644.37419 615.852
1644.40516 617.143
1644.43614 622.009
1644.46711 622.88
1644.49808 622.444
1644.52906 621.79
1644.56003 621.082
1644.59101 621.637
1644.62199 784.959
1644.65296 5910.86
1644.68394 42959
1644.71492 85486.5
1644.7459 48278.5
1644.77688 47943.1
1644.80786 84743.9
1644.83884 42589.3
1644.86982 5859.84
1644.9008 776.766
1644.93178 613.483
1644.96277 611.495
1644.99375 610.753
1645.02474 609.986
1645.05572 609.176
1645.08671 608.236
1645.11769 606.695
1645.14868 603.278
1645.17966 597.973
1645.21065 595.718
1645.24164 599.236
1645.27263 602.138
1645.30362 602.471
1645.33461 601.813
1645.3656 600.726
1645.39659 599.001
1645.42758 595.519
1645.45857 585.018
1645.48957 543.193
1645.52056 457.579
1645.55155 415.389
1645.58255 477.757
1645.61354 552.784
1645.64454 583.892
1645.67554 590.846
1645.70653 591.915
1645.73753 591.314
1645.76853 589.823
1645.79953 589.055
1645.83053 589.482
1645.86153 589.563
1645.89253 588.811
1645.92353 587.204
1645.95453 585.007
1645.98553 583.941
1646.01654 584.431
1646.04754 584.547
1646.07854 583.717
1646.10955 582.684
1646.14055 581.247
1646.17156 579.879
1646.20256 578.677
1646.23357 576.726
1646.26458 576.634
1646.29559 578.016
1646.3266 578.551
1646.3576 578.15
1646.38861 577.359
1646.41962 576.214
1646.45064 574.912
1646.48165 574.098
1646.51266 573.694
1646.54367 573.354
1646.57469 572.76
1646.6057 571.361
1646.63671 568.001
1646.66773 563.847
1646.69874 563.816
1646.72976 566.807
1646.76078 568.124
1646.7918 567.794
1646.82281 566.994
1646.85383 565.886
1646.88485 564.749
1646.91587 564.134
1646.94689 563.853
1646.97791 563.32
1647.00893 562.317
1647.03996 559.931
1647.07098 554.502
1647.102 549.782
1647.13303 552.396
1647.16405 556.555
1647.19507 557.766
1647.2261 557.445
1647.25713 556.801
1647.28815 556.04
1647.31918 555.145
1647.35021 554.211
1647.38124 553.26
1647.41227 552.028
1647.4433 553.075
1647.47433 870.594
1647.50536 10854.8
1647.53639 83036.6
1647.56742 165542
1647.59845 83049.4
1647.62949 11183.6
1647.66052 11241.9
1647.69155 83538.2
1647.72259 166536
1647.75362 83559.2
1647.78466 10936.1
1647.8157 1691.11
1647.84673 26877.3
1647.87777 211202
1647.90881 421860
1647.93985 211190
1647.97089 26854.3
1648.00193 1350.37
1648.03297 540.034
1648.06401 534.417
1648.09505 533.371
1648.1261 531.171
1648.15714 521.464
1648.18818 479.193
1648.21923 419.493
1648.25027 433.448
1648.28132 491.745
1648.31236 519.797
1648.34341 522.811
1648.37446 517.786
1648.40551 510.4
1648.43655 512.593
1648.4676 518.046
1648.49865 520.213
1648.5297 521.7
1648.56075 522.949
1648.59181 522.723
1648.62286 521.077
1648.65391 520.581
1648.68496 521.314
1648.71602 521.503
1648.74707 520.8
1648.77813 518.935
1648.80918 513.063
1648.84024 504.561
1648.87129 504.63
1648.90235 510.638
1648.93341 512.562
1648.96447 511.255
1648.99553 511.431
1649.02658 512.997
1649.05764 513.392
1649.08871 512.359
1649.11977 510.746
1649.15083 509.692
1649.18189 508.632
1649.21295 506.292
1649.24402 501.303
1649.27508 493.561
1649.30615 490.708
1649.33721 497.037
1649.36828 502.042
1649.39934 502.655
1649.43041 502.403
1649.46148 502.323
1649.49255 502.405
1649.52362 501.573
1649.55469 499.844
1649.58576 498.376
1649.61683 497.07
1649.6479 495.46
1649.67897 494.24
1649.71004 490.375
1649.74111 484.227
1649.77219 484.49
1649.80326 490.945
1649.83434 494.352
1649.86541 494.439
1649.89649 493.836
1649.92756 493.174
1649.95864 492.483
1649.98972 491.734
1650.0208 490.858
1650.05188 489.6
1650.08296 490.222
1650.11404 793.858
1650.14512 11913.6
1650.1762 142852
1650.20728 692767
1650.23836 1.16218e+06
1650.26944 554416
1650.30053 69354.4
1650.33161 2691.34
1650.3627 501.156
1650.39378 480.283
1650.42487 479.073
1650.45595 477.947
1650.48704 476.888
1650.51813 476.405
1650.54922 476.485
1650.58031 475.796
1650.6114 472.276
1650.64249 465.877
1650.67358 463.568
1650.70467 468.485
1650.73576 471.408
1650.76685 470.688
1650.79794 468.045
1650.82904 464.939
1650.86013 462.028
1650.89123 445.307
1650.92232 397.546
1650.95342 354.732
1650.98451 379.806
1651.01561 431.532
1651.04671 455.436
1651.07781 456.957
1651.1089 452.539
1651.14 455.138
1651.1711 460.105
1651.2022 461.415
1651.23331 460.225
1651.26441 458.895
1651.29551 458.78
1651.32661 458.904
1651.35772 458.005
1651.38882 456.873
1651.41992 456.656
1651.45103 455.67
1651.48214 453.248
1651.51324 450.979
1651.54435 447.268
1651.57546 442.968
1651.60656 446.495
1651.63767 450.299
1651.66878 450.531
1651.69989 450.058
1651.731 449.875
1651.76211 449.463
1651.79322 448.787
1651.82434 448.028
1651.85545 447.217
1651.88656 446.326
1651.91768 445.208
1651.94879 443.117
1651.97991 438.139
1652.01102 430.798
1652.04214 428.912
1652.07326 435.004
1652.10437 439.406
1652.13549 440.118
1652.16661 439.727
1652.19773 439.111
1652.22885 438.413
1652.25997 437.683
1652.29109 436.961
1652.32221 436.206
1652.35333 435.368
1652.38446 434.311
1652.41558 433.005
1652.4467 431.649
1652.47783 428.901
1652.50895 425.708
1652.54008 427.074
1652.57121 429.131
1652.60233 429.32
1652.63346 428.751
1652.66459 428.07
1652.69572 427.381
1652.72685 426.676
1652.75798 425.951
1652.78911 425.21
1652.82024 424.457
1652.85137 423.69
1652.8825 422.882
1652.91363 421.807
1652.94477 419.462
1652.9759 416.382
1653.00703 416.219
1653.03817 417.673
1653.06931 417.78
1653.10044 416.878
1653.13158 416.166
1653.16272 415.815
1653.19385 415.362
1653.22499 414.63
1653.25613 413.691
1653.28727 412.756
1653.31841 412.057
1653.34955 411.378
1653.38069 410.437
1653.41184 408.756
1653.44298 405.043
1653.47412 400.419
1653.50527 399.963
1653.53641 402.923
1653.56756 404.465
1653.5987 403.824
1653.62985 401.116
1653.66099 389.867
1653.69214 348.214
1653.72329 305.622
1653.75444 341.115
1653.78559 383.375
1653.81674 395.955
1653.84789 398.169
1653.87904 398.732
1653.91019 398.065
1653.94134 395.445
1653.97249 394.886
1654.00365 395.429
1654.0348 395.232
1654.06596 394.502
1654.09711 393.584
1654.12827 392.839
1654.15942 392.255
1654.19058 391.461
1654.22174 390.477
1654.25289 389.922
1654.28405 390.055
1654.31521 390.142
1654.34637 388.681
1654.37753 387.101
1654.40869 385.385
1654.43985 383.809
1654.47102 383.817
1654.50218 383.777
1654.53334 383.312
1654.56451 382.768
1654.59567 382.124
1654.62684 381.358
1654.658 380.546
1654.68917 379.826
1654.72033 379.024
1654.7515 377.98
1654.78267 376.852
1654.81384 375.922
1654.84501 375.309
1654.87618 374.574
1654.90735 372.782
1654.93852 370.614
1654.96969 370.201
1655.00086 370.423
1655.03203 368.963
1655.06321 367.07
1655.09438 367.232
1655.12556 368.229
1655.15673 368.037
1655.18791 366.569
1655.21908 365.222
1655.25026 369.901
1655.28144 969.372
1655.31261 19895.8
1655.34379 162876
1655.37497 375455
1655.40615 288038
1655.43733 86385.7
1655.46851 9306.49
1655.49969 624.368
1655.53088 360.358
1655.56206 358.416
1655.59324 358.18
1655.62443 357.392
1655.65561 355.941
1655.68679 353.785
1655.71798 352.237
1655.74917 352.181
1655.78035 351.748
1655.81154 350.023
1655.84273 348.655
1655.87392 348.828
1655.90511 348.972
1655.9363 348.954
1655.96749 348.816
1655.99868 348.245
1656.02987 347.416
1656.06106 346.332
1656.09225 345.019
1656.12345 344.131
1656.15464 343.928
1656.18583 343.205
1656.21703 342.357
1656.24822 341.998
1656.27942 341.584
1656.31062 340.777
1656.34181 339.743
1656.37301 338.816
1656.40421 337.666
1656.43541 336.122
1656.46661 333.094
1656.49781 320.71
1656.52901 301.395
1656.56021 302.648
1656.59141 319.707
1656.62262 329.782
1656.65382 331.604
1656.68502 331.085
1656.71623 330.607
1656.74743 330.409
1656.77864 329.984
1656.80984 329.255
1656.84105 328.37
1656.87226 327.51
1656.90347 326.662
1656.93467 325.848
1656.96588 325.298
1656.99709 324.658
1657.0283 323.387
1657.05951 321.831
1657.09073 320.97
1657.12194 320.121
1657.15315 319.562
1657.18436 319.09
1657.21558 318.412
1657.24679 317.755
1657.27801 316.73
1657.30922 315.551
1657.34044 315.369
1657.37165 315.487
1657.40287 315.096
1657.43409 314.373
1657.46531 313.657
1657.49653 313.015
1657.52775 312.333
1657.55897 311.57
1657.59019 310.711
1657.62141 309.835
1657.65263 309.129
1657.68385 308.458
1657.71508 307.549
1657.7463 306.297
1657.77752 304.879
1657.80875 303.981
1657.83997 303.916
1657.8712 303.691
1657.90243 303.205
1657.93366 302.472
1657.96488 301.592
1657.99611 300.786
1658.02734 300.087
1658.05857 299.547
1658.0898 298.915
1658.12103 298.107
1658.15226 297.25
1658.18349 296.542
1658.21473 295.934
1658.24596 295.264
1658.27719 294.535
1658.30843 293.79
1658.33966 293.027
1658.3709 292.199
1658.40213 291.322
1658.43337 290.564
1658.46461 290.277
1658.49585 338.981
1658.52708 1876.03
1658.55832 12973.9
1658.58956 25700.6
1658.6208 14555.5
1658.65204 14580.6
1658.68329 25755.2
1658.71453 12994.7
1658.74577 1871.57
1658.77701 331.37
1658.80826 281.632
1658.8395 280.796
1658.87075 280.117
1658.90199 279.262
1658.93324 278.526
1658.96448 277.857
1658.99573 277.07
1659.02698 276.3
1659.05823 275.578
1659.08948 274.993
1659.12073 274.373
1659.15198 273.643
1659.18323 272.798
1659.21448 271.811
1659.24573 270.935
1659.27698 270.349
1659.30824 269.56
1659.33949 267.662
1659.37075 261.398
1659.402 253.135
1659.43326 255.043
1659.46451 261.682
1659.49577 264.466
1659.52703 264.467
1659.55828 263.854
1659.58954 263.129
1659.6208 262.358
1659.65206 261.626
1659.68332 260.946
1659.71458 260.219
1659.74584 259.303
1659.77711 258.071
1659.80837 256.856
1659.83963 256.153
1659.87089 255.689
1659.90216 255.073
1659.93342 254.185
1659.96469 253.465
1659.99596 253.12
1660.02722 253.103
1660.05849 253.195
1660.08976 253.384
1660.12103 253.581
1660.1523 253.704
1660.18356 253.774
1660.21483 253.814
1660.24611 253.835
1660.27738 253.877
1660.30865 253.963
1660.33992 254.039
1660.37119 254.093
1660.40247 254.139
1660.43374 254.182
1660.46502 254.216
1660.49629 254.26
1660.52757 254.326
1660.55885 254.387
1660.59012 254.436
1660.6214 254.476
1660.65268 254.52
1660.68396 254.576
1660.71524 254.632
1660.74652 254.684
1660.7778 254.733
1660.80908 254.776
1660.84036 254.803
1660.87165 255.481
1660.90293 345.569
1660.93421 3164.49
1660.9655 23534
1660.99678 46813.3
1661.02807 23534.2
1661.05935 3165.03
1661.09064 347.054
1661.12193 353.622
1661.15322 3205.98
1661.1845 23510.6
1661.21579 46590.5
1661.24708 23400.6
1661.27837 3146.51
1661.30966 342.933
1661.34096 252.807
1661.37225 253.317
1661.40354 254.437
1661.43483 254.945
1661.46613 255.265
1661.49742 255.592
1661.52872 255.746
1661.56001 255.721
1661.59131 255.68
1661.62261 255.617
1661.6539 255.433
1661.6852 255.575
1661.7165 255.945
1661.7478 256.12
1661.7791 256.157
1661.8104 256.2
1661.8417 256.178
1661.873 255.915
1661.9043 255.548
1661.93561 255.601
1661.96691 255.906
1661.99821 256.067
1662.02952 256.245
1662.06082 256.417
1662.09213 256.453
1662.12343 256.55
1662.15474 256.661
1662.18605 256.645
1662.21736 256.492
1662.24866 255.608
1662.27997 250.627
1662.31128 242.797
1662.34259 243.772
1662.3739 250.522
1662.40522 254.581
1662.43653 255.998
1662.46784 256.662
1662.49915 256.782
1662.53047 256.633
1662.56178 256.79
1662.5931 256.787
1662.62441 256.581
1662.65573 256.981
1662.68705 257.476
1662.71836 257.689
1662.74968 257.732
1662.781 257.678
1662.81232 257.619
1662.84364 257.623
1662.87496 257.648
1662.90628 257.651
1662.9376 257.787
1662.96892 257.955
1663.00025 258.099
1663.03157 258.145
1663.06289 258.023
1663.09422 257.898
1663.12554 258.097
1663.15687 258.333
1663.18819 258.452
1663.21952 258.498
1663.25085 258.429
1663.28218 258.194
1663.31351 258.025
1663.34483 258.186
1663.37616 258.456
1663.40749 258.396
1663.43883 257.488
1663.47016 256.164
1663.50149 256.373
1663.53282 257.681
1663.56416 258.607
1663.59549 258.983
1663.62682 259.122
1663.65816 259.184
1663.68949 259.236
1663.72083 259.286
1663.75217 259.263
1663.7835 259.019
1663.81484 258.752
1663.84618 258.985
1663.87752 259.282
1663.90886 259.302
1663.9402 259.202
1663.97154 259.196
1664.00288 259.313
1664.03423 259.537
1664.06557 259.771
1664.09691 259.905
1664.12826 259.971
1664.1596 260.014
1664.19095 260.035
1664.22229 260.007
1664.25364 259.925
1664.28498 259.881
1664.31633 259.967
1664.34768 260.157
1664.37903 260.241
1664.41038 260.185
1664.44173 260.161
1664.47308 260.307
1664.50443 260.49
1664.53578 260.588
1664.56713 260.634
1664.59849 260.686
1664.62984 260.75
1664.66119 260.787
1664.69255 260.751
1664.7239 260.666
1664.75526 260.711
1664.78662 260.887
1664.81797 260.998
1664.84933 260.982
1664.88069 260.878
1664.91205 260.701
1664.94341 260.483
1664.97477 260.6
1665.00613 261.001
1665.03749 261.262
1665.06885 261.311
1665.10021 261.141
1665.13157 260.682
1665.16294 260.32
1665.1943 260.486
1665.22567 260.613
1665.25703 259.314
1665.2884 254.491
1665.31976 247.05
1665.35113 241.194
1665.3825 239.919
1665.41387 240.965
1665.44523 227.13
1665.4766 214.94
1665.50797 232.935
1665.53934 239.744
1665.57072 221.423
1665.60209 214.319
1665.63346 235.727
1665.66483 252.863
1665.69621 252.546
1665.72758 234.626
1665.75895 217.852
1665.79033 235.25
1665.82171 254.127
1665.85308 258.943
1665.88446 255.413
1665.91584 235.888
1665.94722 208.456
1665.97859 215.547
1666.00997 243.925
1666.04135 258.32
1666.07273 260.981
1666.10411 260.269
1666.1355 253.278
1666.16688 233.692
1666.19826 219.949
1666.22965 236.622
1666.26103 253.617
1666.29241 258.909
1666.3238 261.143
1666.35519 262.157
1666.38657 261.141
1666.41796 253.632
1666.44935 237.991
1666.48073 232.745
1666.51212 246.826
1666.54351 258.959
1666.5749 262.59
1666.60629 263.28
1666.63769 263.378
1666.66908 263.247
1666.70047 262.398
1666.73186 258.363
1666.76326 248.695
1666.79465 239.821
1666.82604 244.05
1666.85744 256.225
1666.88884 262.593
1666.92023 263.885
1666.95163 264.137
1666.98303 264.192
1667.01443 263.944
1667.04582 262.323
1667.07722 258.289
1667.10862 253.212
1667.14002 250.481
1667.17143 254.432
1667.20283 260.794
1667.23423 263.674
1667.26563 264.124
1667.29704 263.467
1667.32844 261.705
1667.35985 260.104
1667.39125 260.11
1667.42266 261.383
1667.45406 263.035
1667.48547 264.429
1667.51688 265.075
1667.54829 265.263
1667.5797 265.331
1667.61111 265.322
1667.64252 265.221
1667.67393 265.056
1667.70534 264.717
1667.73675 264.423
1667.76816 264.776
1667.79958 265.294
1667.83099 265.388
1667.8624 264.935
1667.89382 264.225
1667.92523 264.044
1667.95665 264.654
1667.98807 264.98
1668.01948 265.202
1668.0509 265.467
1668.08232 265.472
1668.11374 264.993
1668.14516 264.003
1668.17658 263.275
1668.208 264.142
1668.23942 264.7
1668.27084 263.78
1668.30227 263.55
1668.33369 264.707
1668.36511 265.316
1668.39654 265.202
1668.42796 265.278
1668.45939 265.708
1668.49081 266.129
1668.52224 266.433
1668.55367 266.626
1668.5851 266.357
1668.61652 265.941
1668.64795 266.207
1668.67938 266.047
1668.71081 265.103
1668.74224 264.039
1668.77367 263.837
1668.80511 286.885
1668.83654 1464.51
1668.86797 25727.7
1668.89941 178201
1668.93084 343259
1668.96228 170154
1668.99371 21453.1
1669.02515 929.284
1669.05658 272.818
1669.08802 267.67
1669.11946 316.801
1669.1509 6553.89
1669.18234 201430
1669.21378 1.60957e+06
1669.24522 3.21887e+06
1669.27666 1.60957e+06
1669.3081 201430
1669.33954 6553.51
1669.37098 316.411
1669.40243 267.147
1669.43387 267.376
1669.46532 267.844
1669.49676 267.951
1669.52821 267.855
1669.55965 267.898
1669.5911 268.169
1669.62255 268.378
1669.654 268.396
1669.68544 268.323
1669.71689 268.18
1669.74834 268.049
1669.77979 267.924
1669.81124 267.986
1669.8427 268.296
1669.87415 268.658
1669.9056 268.911
1669.93705 269.04
1669.96851 269.11
1669.99996 269.164
1670.03142 269.207
1670.06287 269.247
1670.09433 269.283
1670.12579 270.567
1670.15724 431.225
1670.1887 5482.14
1670.22016 43005.3
1670.25162 94008.3
1670.28308 63672.8
1670.31454 16461.8
1670.346 1808.7
1670.37746 313.499
1670.40893 269.628
1670.44039 269.366
1670.47185 269.098
1670.50332 269.007
1670.53478 269.221
1670.56625 269.333
1670.59771 268.962
1670.62918 268.13
1670.66064 268.144
1670.69211 269.178
1670.72358 269.905
1670.75505 287.887
1670.78652 2548.21
1670.81799 73172.9
1670.84946 583495
1670.88093 1.16672e+06
1670.9124 583495
1670.94387 73173.6
1670.97535 2548.82
1671.00682 288.442
1671.03829 270.674
1671.06977 270.644
1671.10124 270.566
1671.13272 270.565
1671.1642 270.661
1671.19567 270.739
1671.22715 270.642
1671.25863 270.3
1671.29011 268.47
1671.32159 262.791
1671.35307 258.667
1671.38455 264.11
1671.41603 269.439
1671.44751 270.963
1671.47899 271.305
1671.51048 271.428
1671.54196 271.51
1671.57345 271.567
1671.60493 271.599
1671.63642 271.636
1671.6679 271.595
1671.69939 271.078
1671.73088 270.337
1671.76236 270.7
1671.79385 271.519
1671.82534 271.907
1671.85683 272.018
1671.88832 272.097
1671.91981 272.149
1671.9513 272.112
1671.98279 272.022
1672.01429 272.082
1672.04578 272.265
1672.07727 272.385
1672.10877 272.448
1672.14026 272.454
1672.17176 272.409
1672.20325 272.451
1672.23475 272.585
1672.26625 272.64
1672.29774 272.535
1672.32924 272.573
1672.36074 293.053
1672.39224 975.693
1672.42374 7343.58
1672.45524 25981
1672.48674 36259.1
1672.51825 16337.3
1672.54975 2220.85
1672.58125 333.529
1672.61276 273.673
1672.64426 273.296
1672.67576 273.367
1672.70727 273.393
1672.73878 273.316
1672.77028 273.124
1672.80179 273.079
1672.8333 273.35
1672.86481 273.598
1672.89632 273.702
1672.92783 273.754
1672.95934 273.774
1672.99085 273.73
1673.02236 273.618
1673.05387 273.619
1673.08538 273.841
1673.1169 279.769
1673.14841 1020.35
1673.17992 24178.2
1673.21144 192077
1673.24296 388695
1673.27447 206161
1673.30599 35947.3
1673.33751 4691.8
1673.36902 1032.46
1673.40054 3205.79
1673.43206 6114.79
1673.46358 3194.7
1673.4951 639.539
1673.52662 285.732
1673.55814 274.28
1673.58967 274.425
1673.62119 274.72
1673.65271 274.854
1673.68424 274.918
1673.71576 274.95
1673.74729 274.895
1673.77881 274.828
1673.81034 274.869
1673.84186 274.705
1673.87339 274.261
1673.90492 274.251
1673.93645 274.796
1673.96798 275.217
1673.99951 275.338
1674.03104 275.347
1674.06257 275.396
1674.0941 275.499
1674.12563 275.577
1674.15717 275.635
1674.1887 275.679
1674.22023 275.698
1674.25177 275.666
1674.2833 275.479
1674.31484 275.088
1674.34638 274.567
1674.37791 271.978
1674.40945 259.088
1674.44099 242.884
1674.47253 251.856
1674.50407 267.954
1674.53561 274.357
1674.56715 275.697
1674.59869 276.055
1674.63023 276.24
1674.66177 276.37
1674.69332 276.468
1674.72486 276.545
1674.7564 276.607
1674.78795 276.658
1674.81949 276.698
1674.85104 276.743
1674.88259 276.803
1674.91413 276.848
1674.94568 276.783
1674.97723 276.431
1675.00878 276.006
1675.04033 276.198
1675.07188 276.781
1675.10343 277.108
1675.13498 277.21
1675.16653 277.255
1675.19808 277.281
1675.22964 277.314
1675.26119 277.517
1675.29274 296.928
1675.3243 902.628
1675.35585 5279.85
1675.38741 10282.8
1675.41897 5307.91
1675.45052 1802.14
1675.48208 7508.1
1675.51364 14772.8
1675.5452 7685.37
1675.57676 1900.21
1675.60832 5339.71
1675.63988 10318
1675.67144 5297.16
1675.703 905.419
1675.73457 297.735
1675.76613 278.36
1675.79769 278.259
1675.82926 278.308
1675.86082 278.325
1675.89239 278.212
1675.92395 278.087
1675.95552 278.268
1675.98709 278.486
1676.01866 278.58
1676.05022 278.576
1676.08179 278.31
1676.11336 277.91
1676.14493 278.111
1676.1765 278.605
1676.20808 279.725
1676.23965 391.804
1676.27122 3975.36
1676.30279 32538.5
1676.33437 86304.5
1676.36594 86304.9
1676.39752 32539
1676.42909 3975.71
1676.46067 392.207
1676.49225 280.225
1676.52382 279.373
1676.5554 279.427
1676.58698 279.499
1676.61856 279.561
1676.65014 279.612
1676.68172 279.656
1676.7133 279.694
1676.74488 279.717
1676.77646 279.682
1676.80805 279.344
1676.83963 278.133
1676.87121 277.097
1676.9028 278.34
1676.93438 279.575
1676.96597 279.951
1676.99756 280.057
1677.02914 279.993
1677.06073 279.863
1677.09232 279.98
1677.12391 280.142
1677.1555 280.07
1677.18709 279.946
1677.21868 279.976
1677.25027 279.784
1677.28186 279.523
1677.31345 279.664
1677.34504 279.596
1677.37664 279.534
1677.40823 280.058
1677.43983 280.399
1677.47142 280.269
1677.50302 279.429
1677.53461 275.141
1677.56621 258.104
1677.59781 239.075
1677.62941 252.217
1677.66101 271.731
1677.69261 278.842
1677.72421 280.072
1677.75581 279.745
1677.78741 279.406
1677.81901 280.108
1677.85061 280.992
1677.88221 281.385
1677.91382 281.514
1677.94542 281.576
1677.97703 281.602
1678.00863 281.629
1678.04024 281.711
1678.07184 281.808
1678.10345 281.88
1678.13506 281.934
1678.16667 281.981
1678.19828 282.02
1678.22989 282.053
1678.2615 282.089
1678.29311 282.122
1678.32472 282.107
1678.35633 281.847
1678.38794 280.764
1678.41956 279.168
1678.45117 279.252
1678.48278 280.999
1678.5144 282.143
1678.54601 282.439
1678.57763 282.454
1678.60925 282.377
1678.64086 282.3
1678.67248 282.317
1678.7041 282.545
1678.73572 282.79
1678.76734 282.914
1678.79896 282.979
1678.83058 283.033
1678.8622 283.084
1678.89382 283.132
1678.92545 283.177
1678.95707 283.225
1678.98869 283.279
1679.02032 283.334
1679.05194 283.383
1679.08357 283.428
1679.1152 283.47
1679.14682 283.517
1679.17845 283.572
1679.21008 283.625
1679.24171 283.667
1679.27334 283.743
1679.30497 292.132
1679.3366 557.121
1679.36823 2473.27
1679.39986 4663.37
1679.43149 2473.65
1679.46312 557.467
1679.49476 292.311
1679.52639 284.025
1679.55803 284.121
1679.58966 284.202
1679.6213 284.258
1679.65293 284.313
1679.68457 284.366
1679.71621 284.417
1679.74785 284.463
1679.77948 284.507
1679.81112 284.544
1679.84276 284.567
1679.8744 284.53
1679.90604 284.251
1679.93769 283.555
1679.96933 283.134
1680.00097 283.779
1680.03262 284.538
1680.06426 284.858
1680.0959 285.186
1680.12755 312.758
1680.1592 1192.72
1680.19084 8206.16
1680.22249 21407.9
1680.25414 21407.8
1680.28578 8206.26
1680.31743 1192.97
1680.34908 313.123
1680.38073 285.664
1680.41238 285.486
1680.44404 285.513
1680.47569 285.552
1680.50734 285.605
1680.53899 285.646
1680.57065 285.664
1680.6023 285.655
1680.63396 285.602
1680.66561 285.439
1680.69727 284.708
1680.72892 280.59
1680.76058 267.045
1680.79224 253.543
1680.8239 262.576
1680.85556 278.063
1680.88722 284.445
1680.91888 285.719
1680.95054 285.957
1680.9822 285.992
1681.01386 286.032
1681.04552 285.797
1681.07719 285.506
1681.10885 285.733
1681.14051 286.221
1681.17218 286.562
1681.20384 286.713
1681.23551 286.785
1681.26718 286.839
1681.29884 286.886
1681.33051 286.921
1681.36218 286.912
1681.39385 286.823
1681.42552 286.62
1681.45719 286.233
1681.48886 285.935
1681.52053 285.964
1681.5522 285.89
1681.58388 285.695
1681.61555 286.178
1681.64722 286.984
1681.6789 287.38
1681.71057 287.446
1681.74225 287.342
1681.77393 287.207
1681.8056 287.244
1681.83728 287.323
1681.86896 287.334
1681.90064 287.437
1681.93232 287.691
1681.964 287.885
1681.99568 288.027
1682.02736 288.263
1682.05904 288.557
1682.09072 288.833
1682.1224 289.023
1682.15409 289.199
1682.18577 289.572
1682.21746 289.983
1682.24914 290.278
1682.28083 290.57
1682.31251 290.947
1682.3442 291.3
1682.37589 291.61
1682.40758 291.892
1682.43927 292.108
1682.47096 292.226
1682.50265 292.359
1682.53434 292.703
1682.56603 293.209
1682.59772 293.68
1682.62941 294.045
1682.6611 294.36
1682.6928 294.658
1682.72449 294.921
1682.75619 295.156
1682.78788 295.456
1682.81958 295.833
1682.85128 296.173
1682.88297 296.472
1682.91467 296.782
1682.94637 297.087
1682.97807 297.324
1683.00977 297.394
1683.04147 297.396
1683.07317 297.742
1683.10487 298.374
1683.13657 298.877
1683.16827 299.226
1683.19998 299.53
1683.23168 299.787
1683.26339 299.852
1683.29509 299.714
1683.3268 299.92
1683.3585 300.625
1683.39021 301.253
1683.42192 301.653
1683.45362 301.965
1683.48533 302.213
1683.51704 302.407
1683.54875 302.685
1683.58046 303.084
1683.61217 303.402
1683.64388 303.555
1683.6756 303.724
1683.70731 304.132
1683.73902 304.56
1683.77074 304.832
1683.80245 304.925
1683.83417 304.915
1683.86588 305.013
1683.8976 309.188
1683.92931 838.799
1683.96103 17885.5
1683.99275 156002
1684.02447 431825
1684.05619 456648
1684.08791 178372
1684.11963 21365.4
1684.15135 1001.88
1684.18307 314.572
1684.21479 307.152
1684.24652 307.1
1684.27824 308.415
1684.30996 309.643
1684.34169 310.309
1684.37341 310.734
1684.40514 311.061
1684.43687 311.307
1684.46859 311.517
1684.50032 311.848
1684.53205 312.279
1684.56378 312.657
1684.59551 312.978
1684.62724 313.287
1684.65897 313.588
1684.6907 313.881
1684.72243 314.181
1684.75416 314.54
1684.7859 320.412
1684.81763 494.66
1684.84936 1757.17
1684.8811 3366.92
1684.91283 3184
1684.94457 3360.17
1684.97631 1754.31
1685.00804 495.626
1685.03978 322.404
1685.07152 317.246
1685.10326 317.653
1685.135 317.961
1685.16674 318.015
1685.19848 318.142
1685.23022 318.52
1685.26196 318.644
1685.29371 318.834
1685.32545 319.328
1685.35719 319.733
1685.38894 319.678
1685.42068 319.655
1685.45243 320.417
1685.48417 321.277
1685.51592 321.784
1685.54767 322.122
1685.57942 322.415
1685.61117 322.681
1685.64291 322.889
1685.67466 323.053
1685.70641 323.275
1685.73817 323.518
1685.76992 323.791
1685.80167 324.255
1685.83342 324.737
1685.86518 324.983
1685.89693 324.953
1685.92868 325.08
1685.96044 325.736
1685.99219 326.333
1686.02395 326.709
1686.05571 327.02
1686.08747 327.315
1686.11922 327.596
1686.15098 327.814
1686.18274 328.03
1686.2145 328.389
1686.24626 328.79
1686.27802 329.075
1686.30979 329.052
1686.34155 328.923
1686.37331 329.442
1686.40507 330.08
1686.43684 330.368
1686.4686 330.642
1686.50037 331.112
1686.53213 331.486
1686.5639 331.602
1686.59567 331.655
1686.62744 331.943
1686.6592 332.227
1686.69097 332.62
1686.72274 333.141
1686.75451 333.647
1686.78628 334.029
1686.81805 334.3
1686.84983 334.506
1686.8816 334.779
1686.91337 335.163
1686.94515 335.493
1686.97692 335.701
1687.00869 335.548
1687.04047 334.181
1687.07225 332.647
1687.10402 334.031
1687.1358 335.963
1687.16758 336.916
1687.19936 336.911
1687.23114 334.164
1687.26292 323.302
1687.2947 307.741
1687.32648 305.74
1687.35826 317.77
1687.39004 331.857
1687.42182 338.33
1687.45361 339.711
1687.48539 339.932
1687.51717 340.179
1687.54896 340.863
1687.58075 341.518
1687.61253 341.938
1687.64432 342.251
1687.67611 342.465
1687.70789 342.46
1687.73968 342.266
1687.77147 342.396
1687.80326 343.12
1687.83505 343.606
1687.86684 343.74
1687.89864 344.184
1687.93043 344.561
1687.96222 344.584
1687.99401 344.953
1688.02581 345.659
1688.0576 346.127
1688.0894 346.186
1688.12119 346.114
1688.15299 346.444
1688.18479 347.026
1688.21658 347.58
1688.24838 347.973
1688.28018 348.236
1688.31198 348.47
1688.34378 348.77
1688.37558 349.176
1688.40738 349.607
1688.43918 349.967
1688.47099 350.286
1688.50279 350.597
1688.53459 350.904
1688.5664 351.202
1688.5982 351.492
1688.63001 351.79
1688.66181 352.108
1688.69362 352.421
1688.72543 352.719
1688.75724 352.989
1688.78904 353.138
1688.82085 354.968
1688.85266 417.326
1688.88447 871.169
1688.91628 1390.59
1688.9481 871.955
1688.97991 420.024
1689.01172 415.196
1689.04353 831.116
1689.07535 1345.12
1689.10716 926.042
1689.13898 465.045
1689.17079 364.468
1689.20261 356.929
1689.23443 357.17
1689.26624 357.277
1689.29806 357.251
1689.32988 357.958
1689.3617 358.598
1689.39352 358.682
1689.42534 357.867
1689.45716 356.756
1689.48898 357.743
1689.5208 366.059
1689.55263 419.364
1689.58445 518.018
1689.61627 517.96
1689.6481 419.878
1689.67992 368.325
1689.71175 362.262
1689.74358 362.29
1689.7754 362.459
1689.80723 362.255
1689.83906 361.586
1689.87089 361.649
1689.90272 362.844
1689.93455 363.935
1689.96638 364.557
1689.99821 364.957
1690.03004 365.284
1690.06187 365.596
1690.09371 365.904
1690.12554 366.209
1690.15737 366.512
1690.18921 366.812
1690.22104 385.088
1690.25288 2686.73
1690.28472 76311
1690.31655 663104
1690.34839 1.76738e+06
1690.38023 1.76711e+06
1690.41207 663172
1690.44391 76495.9
1690.47575 2713.67
1690.50759 380.527
1690.53943 354.221
1690.57127 345.062
1690.60312 342.591
1690.63496 348.344
1690.6668 452.377
1690.69865 1200.69
1690.73049 2058.65
1690.76234 1217.28
1690.79418 477.485
1690.82603 375.415
1690.85788 372.632
1690.88973 372.625
1690.92157 373.906
1690.95342 471.51
1690.98527 1211.47
1691.01712 2065.38
1691.04898 1221.84
1691.08083 481.02
1691.11268 378.822
1691.14453 375.904
1691.17639 376.175
1691.20824 376.296
1691.24009 376.162
1691.27195 376.187
1691.3038 376.507
1691.33566 376.401
1691.36752 376.171
1691.39938 376.457
1691.43123 377.015
1691.46309 377.032
1691.49495 374.642
1691.52681 369.786
1691.55867 368.766
1691.59053 374.153
1691.6224 378.485
1691.65426 379.882
1691.68612 380.436
1691.71798 381.05
1691.74985 381.616
1691.78171 382.025
1691.81358 382.353
1691.84545 382.623
1691.87731 382.724
1691.90918 382.466
1691.94105 381.952
1691.97292 380.958
1692.00478 379.879
1692.03665 381.441
1692.06852 383.78
1692.10039 384.874
1692.13227 385.219
1692.16414 385.454
1692.19601 385.733
1692.22788 385.82
1692.25976 385.27
1692.29163 383.865
1692.32351 382.209
1692.35538 381.804
1692.38726 382.664
1692.41914 383.5
1692.45101 385.592
1692.48289 387.56
1692.51477 388.462
1692.54665 389.114
1692.57853 389.405
1692.61041 388.928
1692.64229 388.381
1692.67417 389.289
1692.70605 390.568
1692.73794 391.244
1692.76982 391.556
1692.8017 391.735
1692.83359 391.992
1692.86547 392.43
1692.89736 392.853
1692.92925 393.196
1692.96113 393.509
1692.99302 393.817
1693.02491 394.123
1693.0568 394.427
1693.08869 394.727
1693.12058 395.016
1693.15247 395.245
1693.18436 395.149
1693.21625 394.452
1693.24814 394.241
1693.28004 395.579
1693.31193 396.681
1693.34382 397.149
1693.37572 397.483
1693.40761 397.797
1693.43951 398.103
1693.47141 398.399
1693.5033 398.635
1693.5352 398.607
1693.5671 398.357
1693.599 398.655
1693.6309 399.497
1693.6628 400.118
1693.6947 400.431
1693.7266 400.692
1693.7585 401.033
1693.79041 401.293
1693.82231 401.251
1693.85421 400.868
1693.88612 399.682
1693.91802 393.29
1693.94993 383.54
1693.98183 384.132
1694.01374 389.422
1694.04565 392.432
1694.07756 394.491
1694.10947 397.35
1694.14137 398.952
1694.17328 399.929
1694.2052 402.748
1694.23711 404.844
1694.26902 405.567
1694.30093 406.015
1694.33284 406.469
1694.36476 406.771
1694.39667 406.74
1694.42859 406.401
1694.4605 406.475
1694.49242 407.091
1694.52433 407.117
1694.55625 406.881
1694.58817 407.402
1694.62009 407.632
1694.652 407.362
1694.68392 408.511
1694.71584 409.486
1694.74776 408.908
1694.77969 407.199
1694.81161 406.312
1694.84353 407.725
1694.87545 409.599
1694.90738 410.308
1694.9393 410.822
1694.97123 411.838
1695.00315 412.579
1695.03508 412.499
1695.067 411.862
1695.09893 411.727
1695.13086 412.904
1695.16279 414.202
1695.19472 414.892
1695.22665 415.279
1695.25858 415.604
1695.29051 415.913
1695.32244 416.211
1695.35437 416.812
1695.3863 473.109
1695.41824 3503.68
1695.45017 66028.7
1695.48211 458958
1695.51404 884321
1695.54598 438223
1695.57791 55014.6
1695.60985 2124.11
1695.64179 432.63
1695.67373 419.618
1695.70566 419.918
1695.7376 420.192
1695.76954 420.354
1695.80148 420.462
1695.83342 421.017
1695.86537 423.586
1695.89731 432.228
1695.92925 444.909
1695.9612 445.211
1695.99314 431.199
1696.02508 423.685
1696.05703 423.197
1696.08898 423.581
1696.12092 423.91
1696.15287 424.222
1696.18482 424.531
1696.21677 424.836
1696.24871 425.138
1696.28066 425.437
1696.31261 425.733
1696.34456 426.027
1696.37652 426.306
1696.40847 426.51
1696.44042 426.471
1696.47237 426.023
1696.50433 425.609
1696.53628 426.28
1696.56824 431.488
1696.60019 461.569
1696.63215 494.949
1696.66411 463.099
1696.69606 457.338
1696.72802 479.474
1696.75998 445.266
1696.79194 418.88
1696.8239 418.343
1696.85586 423.906
1696.88782 428.336
1696.91978 430.309
1696.95174 431.158
1696.98371 431.55
1697.01567 431.827
1697.04763 431.976
1697.0796 431.04
1697.11156 425.734
1697.14353 418.53
1697.1755 420.605
1697.20746 422.92
1697.23943 413.055
1697.2714 401.069
1697.30337 404.951
1697.33534 413.442
1697.36731 416.49
1697.39928 422.576
1697.43125 428.646
1697.46322 428.927
1697.49519 429.16
1697.52717 433.417
1697.55914 436.651
1697.59111 437.73
1697.62309 438.195
1697.65506 438.488
1697.68704 438.66
1697.71902 438.928
1697.75099 439.417
1697.78297 439.854
1697.81495 440.171
1697.84693 440.366
1697.87891 440.34
1697.91089 440.357
1697.94287 440.862
1697.97485 441.442
1698.00683 441.561
1698.03882 440.353
1698.0708 438.767
1698.10278 440.158
1698.13477 442.315
1698.16675 443.156
1698.19874 443.043
1698.23072 442.587
1698.26271 442.563
1698.2947 442.959
1698.32669 443.576
1698.35867 444.449
1698.39066 445.322
1698.42265 445.924
1698.45464 446.276
1698.48664 446.352
1698.51863 446.223
1698.55062 446.34
1698.58261 446.534
1698.61461 446.706
1698.6466 447.285
1698.67859 448.09
1698.71059 448.571
1698.74259 448.802
1698.77458 449.071
1698.80658 449.104
1698.83858 448.72
1698.87058 448.773
1698.90257 449.345
1698.93457 449.774
1698.96657 450.363
1698.99857 451.105
1699.03058 451.57
1699.06258 451.746
1699.09458 452.096
1699.12658 452.614
1699.15859 452.873
1699.19059 452.758
1699.2226 452.733
1699.2546 453.297
1699.28661 454.035
1699.31862 454.505
1699.35062 454.685
1699.38263 454.756
1699.41464 455.023
1699.44665 455.303
1699.47866 455.146
1699.51067 454.397
1699.54268 452.743
1699.57469 447.562
1699.6067 442.673
1699.63872 447.1
1699.67073 453.019
1699.70274 455.662
1699.73476 456.677
1699.76677 456.882
1699.79879 456.439
1699.83081 456.267
1699.86282 456.939
1699.89484 455.842
1699.92686 454.509
1699.95888 441.349
1699.9909 332.844
